subject,block,trial,mu1,mu2,choice,reward,RT,cond
1,1,1,17,-1,1,25,2521,3
1,1,2,17,-1,2,8,1053,3
1,1,3,17,-1,1,25,615,3
1,1,4,17,-1,1,19,519,3
1,1,5,17,-1,1,6,464,3
1,1,6,17,-1,2,6,456,3
1,1,7,17,-1,2,-7,712,3
1,1,8,17,-1,1,19,392,3
1,1,9,17,-1,1,16,560,3
1,1,10,17,-1,1,22,488,3
1,2,1,-3,0,2,0,1296,1
1,2,2,-3,0,1,-1,407,1
1,2,3,-3,0,1,-14,343,1
1,2,4,-3,0,2,0,384,1
1,2,5,-3,0,1,-5,528,1
1,2,6,-3,0,2,0,327,1
1,2,7,-3,0,2,0,415,1
1,2,8,-3,0,2,0,312,1
1,2,9,-3,0,2,0,368,1
1,2,10,-3,0,2,0,367,1
1,3,1,3,19,2,19,984,1
1,3,2,3,19,1,9,391,1
1,3,3,3,19,1,2,759,1
1,3,4,3,19,2,19,352,1
1,3,5,3,19,2,19,456,1
1,3,6,3,19,2,19,359,1
1,3,7,3,19,2,19,367,1
1,3,8,3,19,2,19,335,1
1,3,9,3,19,2,19,328,1
1,3,10,3,19,2,19,327,1
1,4,1,-10,5,1,-9,3088,1
1,4,2,-10,5,2,5,400,1
1,4,3,-10,5,2,5,336,1
1,4,4,-10,5,2,5,336,1
1,4,5,-10,5,1,-15,343,1
1,4,6,-10,5,2,5,335,1
1,4,7,-10,5,2,5,303,1
1,4,8,-10,5,2,5,343,1
1,4,9,-10,5,2,5,327,1
1,4,10,-10,5,2,5,351,1
1,5,1,1,11,2,11,815,1
1,5,2,1,11,1,5,431,1
1,5,3,1,11,1,1,319,1
1,5,4,1,11,1,4,479,1
1,5,5,1,11,2,11,337,1
1,5,6,1,11,2,11,319,1
1,5,7,1,11,2,11,345,1
1,5,8,1,11,2,11,375,1
1,5,9,1,11,2,11,336,1
1,5,10,1,11,2,11,375,1
1,6,1,-8,4,2,4,1264,4
1,6,2,-8,4,1,-8,279,4
1,6,3,-8,4,2,4,336,4
1,6,4,-8,4,2,4,352,4
1,6,5,-8,4,1,-8,344,4
1,6,6,-8,4,2,4,303,4
1,6,7,-8,4,2,4,320,4
1,6,8,-8,4,2,4,359,4
1,6,9,-8,4,2,4,375,4
1,6,10,-8,4,2,4,353,4
1,7,1,-1,-8,2,-8,856,1
1,7,2,-1,-8,1,-2,288,1
1,7,3,-1,-8,1,4,335,1
1,7,4,-1,-8,1,-4,510,1
1,7,5,-1,-8,2,-8,328,1
1,7,6,-1,-8,1,8,352,1
1,7,7,-1,-8,1,5,367,1
1,7,8,-1,-8,1,0,336,1
1,7,9,-1,-8,1,6,343,1
1,7,10,-1,-8,1,-8,352,1
1,8,1,-5,-3,1,-4,617,3
1,8,2,-5,-3,2,-17,312,3
1,8,3,-5,-3,1,-9,384,3
1,8,4,-5,-3,1,-1,335,3
1,8,5,-5,-3,2,-2,375,3
1,8,6,-5,-3,2,7,360,3
1,8,7,-5,-3,2,4,368,3
1,8,8,-5,-3,2,0,368,3
1,8,9,-5,-3,2,6,471,3
1,8,10,-5,-3,1,-2,415,3
1,9,1,0,4,2,4,552,4
1,9,2,0,4,1,0,304,4
1,9,3,0,4,2,4,344,4
1,9,4,0,4,2,4,344,4
1,9,5,0,4,2,4,368,4
1,9,6,0,4,2,4,351,4
1,9,7,0,4,2,4,376,4
1,9,8,0,4,2,4,368,4
1,9,9,0,4,2,4,327,4
1,9,10,0,4,2,4,384,4
1,10,1,-1,7,1,-2,888,3
1,10,2,-1,7,2,4,320,3
1,10,3,-1,7,2,9,335,3
1,10,4,-1,7,2,5,344,3
1,10,5,-1,7,2,8,352,3
1,10,6,-1,7,2,4,344,3
1,10,7,-1,7,2,7,351,3
1,10,8,-1,7,2,2,327,3
1,10,9,-1,7,2,5,360,3
1,10,10,-1,7,2,1,376,3
1,11,1,0,-3,2,-3,752,1
1,11,2,0,-3,1,-19,616,1
1,11,3,0,-3,1,4,408,1
1,11,4,0,-3,1,-15,416,1
1,11,5,0,-3,1,-8,831,1
1,11,6,0,-3,2,-3,304,1
1,11,7,0,-3,2,-3,320,1
1,11,8,0,-3,2,-3,335,1
1,11,9,0,-3,2,-3,309,1
1,11,10,0,-3,2,-3,320,1
1,12,1,-6,9,2,9,657,1
1,12,2,-6,9,1,3,336,1
1,12,3,-6,9,1,-4,343,1
1,12,4,-6,9,1,-10,359,1
1,12,5,-6,9,2,9,311,1
1,12,6,-6,9,2,9,319,1
1,12,7,-6,9,2,9,342,1
1,12,8,-6,9,2,9,391,1
1,12,9,-6,9,2,9,384,1
1,12,10,-6,9,2,9,376,1
1,13,1,3,2,2,2,640,1
1,13,2,3,2,1,7,368,1
1,13,3,3,2,1,1,422,1
1,13,4,3,2,1,-3,359,1
1,13,5,3,2,2,2,567,1
1,13,6,3,2,2,2,327,1
1,13,7,3,2,1,-7,367,1
1,13,8,3,2,1,2,311,1
1,13,9,3,2,1,9,375,1
1,13,10,3,2,1,4,375,1
1,14,1,11,12,1,11,928,4
1,14,2,11,12,2,12,351,4
1,14,3,11,12,2,12,376,4
1,14,4,11,12,2,12,351,4
1,14,5,11,12,2,12,367,4
1,14,6,11,12,2,12,607,4
1,14,7,11,12,2,12,400,4
1,14,8,11,12,2,12,383,4
1,14,9,11,12,2,12,400,4
1,14,10,11,12,2,12,527,4
1,15,1,-1,5,2,8,728,3
1,15,2,-1,5,1,1,319,3
1,15,3,-1,5,2,4,391,3
1,15,4,-1,5,2,13,336,3
1,15,5,-1,5,2,11,615,3
1,15,6,-1,5,2,12,327,3
1,15,7,-1,5,2,10,343,3
1,15,8,-1,5,2,6,336,3
1,15,9,-1,5,2,3,352,3
1,15,10,-1,5,2,-2,535,3
1,16,1,-1,5,2,5,528,1
1,16,2,-1,5,1,3,366,1
1,16,3,-1,5,2,5,303,1
1,16,4,-1,5,2,5,375,1
1,16,5,-1,5,2,5,312,1
1,16,6,-1,5,2,5,312,1
1,16,7,-1,5,2,5,303,1
1,16,8,-1,5,2,5,335,1
1,16,9,-1,5,2,5,327,1
1,16,10,-1,5,2,5,431,1
1,17,1,-13,-20,2,-34,568,2
1,17,2,-13,-20,1,-13,311,2
1,17,3,-13,-20,2,-26,808,2
1,17,4,-13,-20,1,-13,287,2
1,17,5,-13,-20,1,-13,335,2
1,17,6,-13,-20,1,-13,384,2
1,17,7,-13,-20,1,-13,343,2
1,17,8,-13,-20,1,-13,343,2
1,17,9,-13,-20,1,-13,343,2
1,17,10,-13,-20,1,-13,343,2
1,18,1,-6,-11,2,-11,584,1
1,18,2,-6,-11,1,-17,352,1
1,18,3,-6,-11,1,0,833,1
1,18,4,-6,-11,1,-4,327,1
1,18,5,-6,-11,1,-13,360,1
1,18,6,-6,-11,1,-8,344,1
1,18,7,-6,-11,1,-17,368,1
1,18,8,-6,-11,1,-7,369,1
1,18,9,-6,-11,1,-5,335,1
1,18,10,-6,-11,1,2,471,1
1,19,1,3,-15,1,3,681,1
1,19,2,3,-15,2,-15,615,1
1,19,3,3,-15,1,3,287,1
1,19,4,3,-15,1,3,343,1
1,19,5,3,-15,1,1,318,1
1,19,6,3,-15,1,7,376,1
1,19,7,3,-15,1,-4,352,1
1,19,8,3,-15,1,7,432,1
1,19,9,3,-15,1,-5,336,1
1,19,10,3,-15,1,-7,496,1
1,20,1,2,2,2,2,609,1
1,20,2,2,2,1,1,327,1
1,20,3,2,2,1,-1,319,1
1,20,4,2,2,1,2,328,1
1,20,5,2,2,1,-4,367,1
1,20,6,2,2,2,2,358,1
1,20,7,2,2,2,2,271,1
1,20,8,2,2,2,2,288,1
1,20,9,2,2,2,2,432,1
1,20,10,2,2,2,2,343,1
1,21,1,4,-9,2,-9,799,1
1,21,2,4,-9,1,11,312,1
1,21,3,4,-9,1,8,376,1
1,21,4,4,-9,1,12,624,1
1,21,5,4,-9,1,2,344,1
1,21,6,4,-9,1,7,327,1
1,21,7,4,-9,1,9,320,1
1,21,8,4,-9,1,-6,360,1
1,21,9,4,-9,1,12,487,1
1,21,10,4,-9,1,-3,336,1
1,22,1,-2,2,1,-2,529,2
1,22,2,-2,2,2,4,311,2
1,22,3,-2,2,2,4,376,2
1,22,4,-2,2,2,-1,343,2
1,22,5,-2,2,2,-1,343,2
1,22,6,-2,2,2,8,320,2
1,22,7,-2,2,2,12,1016,2
1,22,8,-2,2,2,8,408,2
1,22,9,-2,2,2,-6,384,2
1,22,10,-2,2,2,-5,312,2
1,23,1,-2,6,2,6,519,4
1,23,2,-2,6,1,-2,343,4
1,23,3,-2,6,2,6,335,4
1,23,4,-2,6,2,6,344,4
1,23,5,-2,6,2,6,368,4
1,23,6,-2,6,2,6,368,4
1,23,7,-2,6,2,6,368,4
1,23,8,-2,6,2,6,334,4
1,23,9,-2,6,2,6,381,4
1,23,10,-2,6,2,6,360,4
1,24,1,-17,0,2,0,793,1
1,24,2,-17,0,1,-9,328,1
1,24,3,-17,0,2,0,368,1
1,24,4,-17,0,2,0,360,1
1,24,5,-17,0,2,0,367,1
1,24,6,-17,0,2,0,343,1
1,24,7,-17,0,2,0,384,1
1,24,8,-17,0,2,0,367,1
1,24,9,-17,0,2,0,391,1
1,24,10,-17,0,2,0,384,1
1,25,1,8,-2,2,9,599,2
1,25,2,8,-2,1,8,400,2
1,25,3,8,-2,2,-2,367,2
1,25,4,8,-2,2,-5,352,2
1,25,5,8,-2,1,8,399,2
1,25,6,8,-2,1,8,337,2
1,25,7,8,-2,1,8,960,2
1,25,8,8,-2,1,8,399,2
1,25,9,8,-2,1,8,415,2
1,25,10,8,-2,1,8,376,2
1,26,1,6,7,1,14,664,3
1,26,2,6,7,1,6,664,3
1,26,3,6,7,1,-3,344,3
1,26,4,6,7,1,7,399,3
1,26,5,6,7,1,15,352,3
1,26,6,6,7,1,18,327,3
1,26,7,6,7,1,3,367,3
1,26,8,6,7,1,0,351,3
1,26,9,6,7,1,6,360,3
1,26,10,6,7,1,10,376,3
1,27,1,-4,11,1,-4,656,2
1,27,2,-4,11,2,10,328,2
1,27,3,-4,11,2,13,351,2
1,27,4,-4,11,2,9,352,2
1,27,5,-4,11,2,14,344,2
1,27,6,-4,11,2,11,368,2
1,27,7,-4,11,2,13,384,2
1,27,8,-4,11,2,4,360,2
1,27,9,-4,11,2,2,344,2
1,27,10,-4,11,2,18,400,2
1,28,1,12,18,2,18,544,4
1,28,2,12,18,1,12,591,4
1,28,3,12,18,2,18,320,4
1,28,4,12,18,2,18,359,4
1,28,5,12,18,2,18,375,4
1,28,6,12,18,2,18,392,4
1,28,7,12,18,2,18,360,4
1,28,8,12,18,2,18,384,4
1,28,9,12,18,2,18,376,4
1,28,10,12,18,2,18,384,4
1,29,1,-2,17,2,17,857,1
1,29,2,-2,17,2,17,336,1
1,29,3,-2,17,2,17,351,1
1,29,4,-2,17,2,17,360,1
1,29,5,-2,17,2,17,360,1
1,29,6,-2,17,2,17,352,1
1,29,7,-2,17,2,17,359,1
1,29,8,-2,17,1,5,415,1
1,29,9,-2,17,2,17,335,1
1,29,10,-2,17,2,17,440,1
1,30,1,3,5,2,5,592,1
1,30,2,3,5,1,5,367,1
1,30,3,3,5,1,-3,360,1
1,30,4,3,5,1,5,360,1
1,30,5,3,5,1,21,391,1
1,30,6,3,5,1,7,359,1
1,30,7,3,5,1,7,360,1
1,30,8,3,5,1,0,368,1
1,30,9,3,5,1,13,392,1
1,30,10,3,5,1,5,431,1
2,1,1,-1,-3,1,-1,2023,4
2,1,2,-1,-3,1,-1,1324,4
2,1,3,-1,-3,2,-3,879,4
2,1,4,-1,-3,1,-1,408,4
2,1,5,-1,-3,1,-1,375,4
2,1,6,-1,-3,2,-3,433,4
2,1,7,-1,-3,1,-1,336,4
2,1,8,-1,-3,1,-1,304,4
2,1,9,-1,-3,1,-1,320,4
2,1,10,-1,-3,1,-1,296,4
2,2,1,-11,3,1,1,816,3
2,2,2,-11,3,2,-3,326,3
2,2,3,-11,3,1,-13,343,3
2,2,4,-11,3,2,14,350,3
2,2,5,-11,3,2,1,376,3
2,2,6,-11,3,2,4,407,3
2,2,7,-11,3,2,0,294,3
2,2,8,-11,3,2,2,295,3
2,2,9,-11,3,2,-1,287,3
2,2,10,-11,3,2,1,632,3
2,3,1,-4,-1,2,-2,583,3
2,3,2,-4,-1,1,-11,424,3
2,3,3,-4,-1,2,-2,297,3
2,3,4,-4,-1,2,-7,297,3
2,3,5,-4,-1,1,-5,348,3
2,3,6,-4,-1,2,-3,279,3
2,3,7,-4,-1,2,1,263,3
2,3,8,-4,-1,2,-4,329,3
2,3,9,-4,-1,1,-10,385,3
2,3,10,-4,-1,2,-1,288,3
2,4,1,-4,6,2,6,704,3
2,4,2,-4,6,2,6,295,3
2,4,3,-4,6,2,16,286,3
2,4,4,-4,6,2,12,310,3
2,4,5,-4,6,2,-1,287,3
2,4,6,-4,6,2,8,391,3
2,4,7,-4,6,2,14,319,3
2,4,8,-4,6,2,10,310,3
2,4,9,-4,6,2,9,863,3
2,4,10,-4,6,2,10,360,3
2,5,1,7,3,2,4,456,3
2,5,2,7,3,2,5,295,3
2,5,3,7,3,2,-11,343,3
2,5,4,7,3,2,-2,432,3
2,5,5,7,3,1,5,375,3
2,5,6,7,3,1,-4,280,3
2,5,7,7,3,1,11,529,3
2,5,8,7,3,1,-3,385,3
2,5,9,7,3,1,19,313,3
2,5,10,7,3,1,2,367,3
2,6,1,0,-6,2,-6,449,4
2,6,2,0,-6,1,0,374,4
2,6,3,0,-6,1,0,287,4
2,6,4,0,-6,1,0,536,4
2,6,5,0,-6,2,-6,398,4
2,6,6,0,-6,2,-6,302,4
2,6,7,0,-6,1,0,287,4
2,6,8,0,-6,1,0,384,4
2,6,9,0,-6,1,0,344,4
2,6,10,0,-6,1,0,383,4
2,7,1,16,-2,1,18,760,1
2,7,2,16,-2,1,13,376,1
2,7,3,16,-2,1,12,1042,1
2,7,4,16,-2,1,3,359,1
2,7,5,16,-2,1,16,384,1
2,7,6,16,-2,1,17,1184,1
2,7,7,16,-2,1,14,432,1
2,7,8,16,-2,1,27,7904,1
2,7,9,16,-2,1,11,423,1
2,7,10,16,-2,1,6,367,1
2,8,1,-7,-1,1,-11,520,3
2,8,2,-7,-1,2,4,272,3
2,8,3,-7,-1,2,0,304,3
2,8,4,-7,-1,2,-5,343,3
2,8,5,-7,-1,2,-7,352,3
2,8,6,-7,-1,1,-6,336,3
2,8,7,-7,-1,2,-8,320,3
2,8,8,-7,-1,1,-9,296,3
2,8,9,-7,-1,2,-1,311,3
2,8,10,-7,-1,2,-5,320,3
2,9,1,-2,-3,2,-3,801,4
2,9,2,-2,-3,1,-2,279,4
2,9,3,-2,-3,2,-3,319,4
2,9,4,-2,-3,1,-2,279,4
2,9,5,-2,-3,1,-2,278,4
2,9,6,-2,-3,1,-2,264,4
2,9,7,-2,-3,1,-2,302,4
2,9,8,-2,-3,1,-2,270,4
2,9,9,-2,-3,1,-2,296,4
2,9,10,-2,-3,1,-2,295,4
2,10,1,-2,-3,1,-2,560,2
2,10,2,-2,-3,2,-4,376,2
2,10,3,-2,-3,2,-15,343,2
2,10,4,-2,-3,1,-2,297,2
2,10,5,-2,-3,1,-2,313,2
2,10,6,-2,-3,1,-2,423,2
2,10,7,-2,-3,1,-2,328,2
2,10,8,-2,-3,2,-11,320,2
2,10,9,-2,-3,1,-2,343,2
2,10,10,-2,-3,1,-2,535,2
2,11,1,10,-4,1,10,592,4
2,11,2,10,-4,1,10,390,4
2,11,3,10,-4,1,10,336,4
2,11,4,10,-4,1,10,343,4
2,11,5,10,-4,1,10,319,4
2,11,6,10,-4,1,10,405,4
2,11,7,10,-4,1,10,305,4
2,11,8,10,-4,1,10,368,4
2,11,9,10,-4,1,10,351,4
2,11,10,10,-4,1,10,383,4
2,12,1,-8,3,2,3,1192,1
2,12,2,-8,3,2,3,281,1
2,12,3,-8,3,2,3,335,1
2,12,4,-8,3,1,-8,328,1
2,12,5,-8,3,2,3,384,1
2,12,6,-8,3,2,3,398,1
2,12,7,-8,3,2,3,384,1
2,12,8,-8,3,2,3,311,1
2,12,9,-8,3,2,3,362,1
2,12,10,-8,3,2,3,447,1
2,13,1,10,13,1,10,896,4
2,13,2,10,13,2,13,455,4
2,13,3,10,13,2,13,343,4
2,13,4,10,13,2,13,407,4
2,13,5,10,13,2,13,391,4
2,13,6,10,13,2,13,462,4
2,13,7,10,13,2,13,375,4
2,13,8,10,13,2,13,375,4
2,13,9,10,13,2,13,399,4
2,13,10,10,13,2,13,369,4
2,14,1,0,-6,1,0,1257,2
2,14,2,0,-6,2,3,368,2
2,14,3,0,-6,1,0,345,2
2,14,4,0,-6,2,-6,432,2
2,14,5,0,-6,1,0,430,2
2,14,6,0,-6,1,0,376,2
2,14,7,0,-6,1,0,375,2
2,14,8,0,-6,1,0,318,2
2,14,9,0,-6,2,-2,311,2
2,14,10,0,-6,1,0,335,2
2,15,1,9,-11,2,-23,520,2
2,15,2,9,-11,1,9,414,2
2,15,3,9,-11,1,9,288,2
2,15,4,9,-11,1,9,312,2
2,15,5,9,-11,2,-11,304,2
2,15,6,9,-11,1,9,335,2
2,15,7,9,-11,1,9,351,2
2,15,8,9,-11,1,9,375,2
2,15,9,9,-11,1,9,336,2
2,15,10,9,-11,1,9,311,2
2,16,1,-5,-7,1,-1,529,1
2,16,2,-5,-7,2,-7,297,1
2,16,3,-5,-7,1,-12,360,1
2,16,4,-5,-7,2,-7,567,1
2,16,5,-5,-7,1,-18,495,1
2,16,6,-5,-7,1,-8,303,1
2,16,7,-5,-7,1,-4,310,1
2,16,8,-5,-7,2,-7,343,1
2,16,9,-5,-7,2,-7,334,1
2,16,10,-5,-7,2,-7,327,1
2,17,1,10,-14,1,15,495,1
2,17,2,10,-14,1,14,279,1
2,17,3,10,-14,1,6,408,1
2,17,4,10,-14,1,11,558,1
2,17,5,10,-14,1,8,343,1
2,17,6,10,-14,1,4,311,1
2,17,7,10,-14,1,15,319,1
2,17,8,10,-14,1,-1,302,1
2,17,9,10,-14,1,21,344,1
2,17,10,10,-14,1,8,337,1
2,18,1,18,0,1,18,448,2
2,18,2,18,0,1,18,294,2
2,18,3,18,0,1,18,289,2
2,18,4,18,0,1,18,335,2
2,18,5,18,0,1,18,304,2
2,18,6,18,0,1,18,313,2
2,18,7,18,0,1,18,313,2
2,18,8,18,0,1,18,303,2
2,18,9,18,0,1,18,319,2
2,18,10,18,0,1,18,295,2
2,19,1,4,0,1,7,528,1
2,19,2,4,0,1,3,327,1
2,19,3,4,0,1,8,318,1
2,19,4,4,0,1,0,306,1
2,19,5,4,0,1,7,303,1
2,19,6,4,0,1,4,296,1
2,19,7,4,0,1,2,312,1
2,19,8,4,0,1,15,278,1
2,19,9,4,0,1,6,295,1
2,19,10,4,0,1,0,303,1
2,20,1,9,3,2,3,560,1
2,20,2,9,3,2,3,296,1
2,20,3,9,3,1,16,336,1
2,20,4,9,3,1,18,456,1
2,20,5,9,3,1,15,303,1
2,20,6,9,3,1,8,264,1
2,20,7,9,3,1,12,328,1
2,20,8,9,3,1,11,312,1
2,20,9,9,3,1,8,304,1
2,20,10,9,3,1,15,281,1
2,21,1,-5,-11,1,-11,673,1
2,21,2,-5,-11,2,-11,296,1
2,21,3,-5,-11,2,-11,319,1
2,21,4,-5,-11,1,-1,368,1
2,21,5,-5,-11,1,1,294,1
2,21,6,-5,-11,1,-3,367,1
2,21,7,-5,-11,1,-12,296,1
2,21,8,-5,-11,1,5,296,1
2,21,9,-5,-11,1,-1,319,1
2,21,10,-5,-11,1,-1,327,1
2,22,1,-5,3,2,-4,1144,3
2,22,2,-5,3,1,6,479,3
2,22,3,-5,3,1,-3,280,3
2,22,4,-5,3,1,-4,303,3
2,22,5,-5,3,1,-3,247,3
2,22,6,-5,3,2,3,399,3
2,22,7,-5,3,2,-8,329,3
2,22,8,-5,3,1,-3,353,3
2,22,9,-5,3,2,12,570,3
2,22,10,-5,3,1,3,392,3
2,23,1,7,-5,2,-5,576,4
2,23,2,7,-5,1,7,329,4
2,23,3,7,-5,1,7,279,4
2,23,4,7,-5,1,7,287,4
2,23,5,7,-5,1,7,287,4
2,23,6,7,-5,1,7,407,4
2,23,7,7,-5,1,7,310,4
2,23,8,7,-5,1,7,375,4
2,23,9,7,-5,1,7,335,4
2,23,10,7,-5,1,7,366,4
2,24,1,10,-4,1,10,481,2
2,24,2,10,-4,1,10,335,2
2,24,3,10,-4,1,10,327,2
2,24,4,10,-4,1,10,390,2
2,24,5,10,-4,1,10,336,2
2,24,6,10,-4,1,10,401,2
2,24,7,10,-4,1,10,384,2
2,24,8,10,-4,1,10,416,2
2,24,9,10,-4,1,10,352,2
2,24,10,10,-4,1,10,377,2
2,25,1,6,13,2,15,440,3
2,25,2,6,13,2,12,320,3
2,25,3,6,13,2,1,328,3
2,25,4,6,13,2,11,351,3
2,25,5,6,13,2,8,374,3
2,25,6,6,13,2,12,392,3
2,25,7,6,13,2,27,375,3
2,25,8,6,13,2,12,351,3
2,25,9,6,13,2,16,374,3
2,25,10,6,13,2,15,367,3
2,26,1,-3,-1,2,-1,792,4
2,26,2,-3,-1,1,-3,294,4
2,26,3,-3,-1,2,-1,327,4
2,26,4,-3,-1,2,-1,278,4
2,26,5,-3,-1,2,-1,272,4
2,26,6,-3,-1,2,-1,312,4
2,26,7,-3,-1,2,-1,304,4
2,26,8,-3,-1,2,-1,341,4
2,26,9,-3,-1,2,-1,343,4
2,26,10,-3,-1,2,-1,328,4
2,27,1,-10,-2,1,10,496,1
2,27,2,-10,-2,1,-14,288,1
2,27,3,-10,-2,2,-2,327,1
2,27,4,-10,-2,1,-13,337,1
2,27,5,-10,-2,2,-2,304,1
2,27,6,-10,-2,1,-9,295,1
2,27,7,-10,-2,1,-9,280,1
2,27,8,-10,-2,1,-8,294,1
2,27,9,-10,-2,2,-2,295,1
2,27,10,-10,-2,2,-2,288,1
2,28,1,10,6,1,28,2728,1
2,28,2,10,6,2,6,456,1
2,28,3,10,6,2,6,383,1
2,28,4,10,6,2,6,304,1
2,28,5,10,6,2,6,303,1
2,28,6,10,6,2,6,304,1
2,28,7,10,6,1,8,366,1
2,28,8,10,6,1,8,289,1
2,28,9,10,6,1,16,288,1
2,28,10,10,6,1,15,305,1
2,29,1,-2,-2,1,4,592,1
2,29,2,-2,-2,2,-2,295,1
2,29,3,-2,-2,1,11,320,1
2,29,4,-2,-2,1,0,295,1
2,29,5,-2,-2,1,-4,327,1
2,29,6,-2,-2,1,0,310,1
2,29,7,-2,-2,1,1,351,1
2,29,8,-2,-2,1,-15,334,1
2,29,9,-2,-2,1,-6,342,1
2,29,10,-2,-2,2,-2,991,1
2,30,1,-10,-7,2,-7,1464,4
2,30,2,-10,-7,1,-10,358,4
2,30,3,-10,-7,2,-7,510,4
2,30,4,-10,-7,1,-10,302,4
2,30,5,-10,-7,2,-7,335,4
2,30,6,-10,-7,1,-10,352,4
2,30,7,-10,-7,2,-7,342,4
2,30,8,-10,-7,2,-7,368,4
2,30,9,-10,-7,2,-7,303,4
2,30,10,-10,-7,2,-7,336,4
3,1,1,7,0,1,7,925,4
3,1,2,7,0,2,0,357,4
3,1,3,7,0,1,7,685,4
3,1,4,7,0,1,7,409,4
3,1,5,7,0,1,7,258,4
3,1,6,7,0,1,7,276,4
3,1,7,7,0,1,7,266,4
3,1,8,7,0,1,7,446,4
3,1,9,7,0,1,7,309,4
3,1,10,7,0,1,7,304,4
3,2,1,-7,-2,2,-2,782,4
3,2,2,-7,-2,1,-7,308,4
3,2,3,-7,-2,2,-2,338,4
3,2,4,-7,-2,2,-2,255,4
3,2,5,-7,-2,2,-2,278,4
3,2,6,-7,-2,2,-2,267,4
3,2,7,-7,-2,2,-2,237,4
3,2,8,-7,-2,2,-2,259,4
3,2,9,-7,-2,2,-2,234,4
3,2,10,-7,-2,2,-2,277,4
3,3,1,-6,-11,2,-4,551,3
3,3,2,-6,-11,1,2,582,3
3,3,3,-6,-11,1,-25,270,3
3,3,4,-6,-11,2,-17,597,3
3,3,5,-6,-11,1,-8,544,3
3,3,6,-6,-11,2,-5,558,3
3,3,7,-6,-11,2,-12,298,3
3,3,8,-6,-11,2,-13,298,3
3,3,9,-6,-11,2,-9,287,3
3,3,10,-6,-11,1,-6,338,3
3,4,1,8,11,2,9,571,2
3,4,2,8,11,2,14,337,2
3,4,3,8,11,1,8,416,2
3,4,4,8,11,2,15,407,2
3,4,5,8,11,2,6,235,2
3,4,6,8,11,2,11,878,2
3,4,7,8,11,2,5,247,2
3,4,8,8,11,2,17,417,2
3,4,9,8,11,2,5,788,2
3,4,10,8,11,2,12,322,2
3,5,1,1,-6,2,-6,833,4
3,5,2,1,-6,1,1,537,4
3,5,3,1,-6,1,1,239,4
3,5,4,1,-6,1,1,277,4
3,5,5,1,-6,1,1,497,4
3,5,6,1,-6,1,1,258,4
3,5,7,1,-6,1,1,299,4
3,5,8,1,-6,1,1,377,4
3,5,9,1,-6,1,1,318,4
3,5,10,1,-6,1,1,318,4
3,6,1,13,-1,2,-10,240,2
3,6,2,13,-1,1,13,307,2
3,6,3,13,-1,1,13,546,2
3,6,4,13,-1,1,13,297,2
3,6,5,13,-1,1,13,286,2
3,6,6,13,-1,1,13,266,2
3,6,7,13,-1,1,13,278,2
3,6,8,13,-1,1,13,269,2
3,6,9,13,-1,1,13,755,2
3,6,10,13,-1,1,13,329,2
3,7,1,-3,4,2,4,638,1
3,7,2,-3,4,1,2,258,1
3,7,3,-3,4,1,-3,257,1
3,7,4,-3,4,1,-3,256,1
3,7,5,-3,4,2,4,535,1
3,7,6,-3,4,2,4,288,1
3,7,7,-3,4,2,4,248,1
3,7,8,-3,4,2,4,268,1
3,7,9,-3,4,2,4,288,1
3,7,10,-3,4,2,4,370,1
3,8,1,-2,-1,2,4,501,3
3,8,2,-2,-1,1,3,268,3
3,8,3,-2,-1,1,0,258,3
3,8,4,-2,-1,2,-2,819,3
3,8,5,-2,-1,1,7,238,3
3,8,6,-2,-1,1,1,296,3
3,8,7,-2,-1,1,-4,278,3
3,8,8,-2,-1,1,-7,292,3
3,8,9,-2,-1,1,7,277,3
3,8,10,-2,-1,1,-4,296,3
3,9,1,5,4,2,4,751,1
3,9,2,5,4,1,15,316,1
3,9,3,5,4,1,15,568,1
3,9,4,5,4,1,-2,2027,1
3,9,5,5,4,1,8,209,1
3,9,6,5,4,1,10,277,1
3,9,7,5,4,1,1,299,1
3,9,8,5,4,1,0,266,1
3,9,9,5,4,1,5,270,1
3,9,10,5,4,1,4,268,1
3,10,1,7,11,2,13,552,3
3,10,2,7,11,1,6,601,3
3,10,3,7,11,2,10,297,3
3,10,4,7,11,2,7,797,3
3,10,5,7,11,2,8,287,3
3,10,6,7,11,2,9,298,3
3,10,7,7,11,2,7,272,3
3,10,8,7,11,2,8,288,3
3,10,9,7,11,2,-1,289,3
3,10,10,7,11,2,5,389,3
3,11,1,-2,0,2,0,470,4
3,11,2,-2,0,1,-2,267,4
3,11,3,-2,0,2,0,308,4
3,11,4,-2,0,2,0,357,4
3,11,5,-2,0,2,0,528,4
3,11,6,-2,0,2,0,328,4
3,11,7,-2,0,2,0,698,4
3,11,8,-2,0,2,0,278,4
3,11,9,-2,0,2,0,257,4
3,11,10,-2,0,2,0,257,4
3,12,1,11,5,2,13,711,2
3,12,2,11,5,1,11,297,2
3,12,3,11,5,2,2,378,2
3,12,4,11,5,1,11,288,2
3,12,5,11,5,1,11,279,2
3,12,6,11,5,1,11,299,2
3,12,7,11,5,1,11,285,2
3,12,8,11,5,1,11,299,2
3,12,9,11,5,1,11,298,2
3,12,10,11,5,1,11,307,2
3,13,1,-3,3,2,3,481,3
3,13,2,-3,3,1,2,527,3
3,13,3,-3,3,1,-12,299,3
3,13,4,-3,3,2,6,398,3
3,13,5,-3,3,2,0,239,3
3,13,6,-3,3,2,26,258,3
3,13,7,-3,3,2,5,240,3
3,13,8,-3,3,2,11,280,3
3,13,9,-3,3,2,10,330,3
3,13,10,-3,3,2,1,388,3
3,14,1,5,0,2,-2,500,2
3,14,2,5,0,1,5,326,2
3,14,3,5,0,2,17,369,2
3,14,4,5,0,2,0,289,2
3,14,5,5,0,2,-12,268,2
3,14,6,5,0,2,8,288,2
3,14,7,5,0,2,-7,286,2
3,14,8,5,0,2,0,660,2
3,14,9,5,0,2,-7,288,2
3,14,10,5,0,2,-8,327,2
3,15,1,-17,17,2,11,450,2
3,15,2,-17,17,1,-17,281,2
3,15,3,-17,17,2,15,338,2
3,15,4,-17,17,2,16,269,2
3,15,5,-17,17,2,15,270,2
3,15,6,-17,17,2,24,296,2
3,15,7,-17,17,2,12,277,2
3,15,8,-17,17,2,16,348,2
3,15,9,-17,17,2,21,308,2
3,15,10,-17,17,2,23,302,2
3,16,1,4,10,2,10,471,4
3,16,2,4,10,1,4,347,4
3,16,3,4,10,2,10,308,4
3,16,4,4,10,2,10,388,4
3,16,5,4,10,2,10,293,4
3,16,6,4,10,2,10,328,4
3,16,7,4,10,2,10,297,4
3,16,8,4,10,2,10,288,4
3,16,9,4,10,2,10,309,4
3,16,10,4,10,2,10,296,4
3,17,1,-4,-7,2,-4,480,2
3,17,2,-4,-7,1,-4,286,2
3,17,3,-4,-7,2,-4,615,2
3,17,4,-4,-7,2,-9,289,2
3,17,5,-4,-7,2,-3,308,2
3,17,6,-4,-7,2,-16,285,2
3,17,7,-4,-7,2,-4,958,2
3,17,8,-4,-7,2,-7,289,2
3,17,9,-4,-7,2,-3,327,2
3,17,10,-4,-7,2,2,327,2
3,18,1,-1,4,2,2,437,3
3,18,2,-1,4,1,-7,287,3
3,18,3,-1,4,2,13,348,3
3,18,4,-1,4,2,0,323,3
3,18,5,-1,4,2,6,489,3
3,18,6,-1,4,2,3,289,3
3,18,7,-1,4,2,8,278,3
3,18,8,-1,4,2,2,596,3
3,18,9,-1,4,2,0,338,3
3,18,10,-1,4,2,6,351,3
3,19,1,18,-11,2,-13,590,3
3,19,2,18,-11,1,15,278,3
3,19,3,18,-11,1,17,816,3
3,19,4,18,-11,1,17,317,3
3,19,5,18,-11,1,14,162,3
3,19,6,18,-11,1,9,338,3
3,19,7,18,-11,1,22,757,3
3,19,8,18,-11,1,18,814,3
3,19,9,18,-11,1,16,288,3
3,19,10,18,-11,1,13,339,3
3,20,1,-11,-14,2,-14,982,1
3,20,2,-11,-14,1,-17,346,1
3,20,3,-11,-14,1,-18,283,1
3,20,4,-11,-14,1,-12,257,1
3,20,5,-11,-14,1,-7,288,1
3,20,6,-11,-14,1,-4,337,1
3,20,7,-11,-14,1,-21,278,1
3,20,8,-11,-14,1,-18,314,1
3,20,9,-11,-14,1,-9,307,1
3,20,10,-11,-14,1,-4,321,1
3,21,1,2,0,2,0,1049,4
3,21,2,2,0,2,0,286,4
3,21,3,2,0,2,0,398,4
3,21,4,2,0,1,2,246,4
3,21,5,2,0,1,2,248,4
3,21,6,2,0,1,2,317,4
3,21,7,2,0,1,2,299,4
3,21,8,2,0,1,2,268,4
3,21,9,2,0,1,2,381,4
3,21,10,2,0,1,2,435,4
3,22,1,2,-7,2,-6,703,2
3,22,2,2,-7,1,2,657,2
3,22,3,2,-7,2,-12,297,2
3,22,4,2,-7,2,-4,287,2
3,22,5,2,-7,2,-9,308,2
3,22,6,2,-7,2,-9,319,2
3,22,7,2,-7,2,-13,298,2
3,22,8,2,-7,2,-5,317,2
3,22,9,2,-7,2,-6,579,2
3,22,10,2,-7,2,-8,328,2
3,23,1,1,4,2,4,1091,1
3,23,2,1,4,2,4,295,1
3,23,3,1,4,1,3,205,1
3,23,4,1,4,1,-2,469,1
3,23,5,1,4,1,5,257,1
3,23,6,1,4,1,5,288,1
3,23,7,1,4,1,10,287,1
3,23,8,1,4,1,8,296,1
3,23,9,1,4,1,-2,277,1
3,23,10,1,4,1,3,348,1
3,24,1,20,-5,2,-2,1407,2
3,24,2,20,-5,1,20,380,2
3,24,3,20,-5,1,20,357,2
3,24,4,20,-5,1,20,265,2
3,24,5,20,-5,1,20,262,2
3,24,6,20,-5,1,20,528,2
3,24,7,20,-5,1,20,289,2
3,24,8,20,-5,1,20,299,2
3,24,9,20,-5,1,20,300,2
3,24,10,20,-5,1,20,348,2
3,25,1,-10,3,2,4,671,3
3,25,2,-10,3,1,-19,676,3
3,25,3,-10,3,2,2,996,3
3,25,4,-10,3,2,12,307,3
3,25,5,-10,3,2,11,298,3
3,25,6,-10,3,2,-4,348,3
3,25,7,-10,3,2,10,367,3
3,25,8,-10,3,2,2,319,3
3,25,9,-10,3,2,7,335,3
3,25,10,-10,3,2,1,309,3
3,26,1,8,-7,2,-3,471,3
3,26,2,8,-7,1,17,339,3
3,26,3,8,-7,1,5,228,3
3,26,4,8,-7,1,6,268,3
3,26,5,8,-7,1,6,318,3
3,26,6,8,-7,1,8,319,3
3,26,7,8,-7,1,3,297,3
3,26,8,8,-7,1,6,317,3
3,26,9,8,-7,1,14,320,3
3,26,10,8,-7,1,-7,280,3
3,27,1,3,3,1,-4,650,3
3,27,2,3,3,1,1,418,3
3,27,3,3,3,2,-5,264,3
3,27,4,3,3,2,3,338,3
3,27,5,3,3,2,8,380,3
3,27,6,3,3,2,-3,326,3
3,27,7,3,3,2,13,279,3
3,27,8,3,3,2,6,426,3
3,27,9,3,3,2,-2,287,3
3,27,10,3,3,2,-8,356,3
3,28,1,6,2,2,2,670,1
3,28,2,6,2,1,6,537,1
3,28,3,6,2,1,10,293,1
3,28,4,6,2,1,5,256,1
3,28,5,6,2,1,4,358,1
3,28,6,6,2,1,-6,328,1
3,28,7,6,2,1,5,349,1
3,28,8,6,2,1,1,317,1
3,28,9,6,2,1,14,288,1
3,28,10,6,2,1,11,327,1
3,29,1,2,-2,2,-10,730,2
3,29,2,2,-2,2,1,895,2
3,29,3,2,-2,1,2,278,2
3,29,4,2,-2,2,5,317,2
3,29,5,2,-2,2,2,297,2
3,29,6,2,-2,2,-3,497,2
3,29,7,2,-2,2,-5,298,2
3,29,8,2,-2,2,1,337,2
3,29,9,2,-2,2,6,359,2
3,29,10,2,-2,2,-7,296,2
3,30,1,6,-3,2,-8,492,2
3,30,2,6,-3,1,6,293,2
3,30,3,6,-3,2,-8,320,2
3,30,4,6,-3,2,1,297,2
3,30,5,6,-3,2,-2,257,2
3,30,6,6,-3,2,-2,299,2
3,30,7,6,-3,2,0,336,2
3,30,8,6,-3,2,10,318,2
3,30,9,6,-3,2,-9,348,2
3,30,10,6,-3,2,-18,316,2
4,1,1,-7,-1,1,-11,1010,3
4,1,2,-7,-1,2,4,463,3
4,1,3,-7,-1,2,-4,457,3
4,1,4,-7,-1,1,2,320,3
4,1,5,-7,-1,1,-10,293,3
4,1,6,-7,-1,1,-9,255,3
4,1,7,-7,-1,2,0,292,3
4,1,8,-7,-1,2,-5,262,3
4,1,9,-7,-1,2,-12,266,3
4,1,10,-7,-1,1,-11,530,3
4,2,1,1,1,2,1,479,4
4,2,2,1,1,2,1,413,4
4,2,3,1,1,2,1,247,4
4,2,4,1,1,2,1,226,4
4,2,5,1,1,2,1,260,4
4,2,6,1,1,1,1,369,4
4,2,7,1,1,1,1,247,4
4,2,8,1,1,1,1,233,4
4,2,9,1,1,1,1,238,4
4,2,10,1,1,1,1,257,4
4,3,1,5,-6,2,-4,412,3
4,3,2,5,-6,2,-1,925,3
4,3,3,5,-6,2,-16,237,3
4,3,4,5,-6,2,-11,261,3
4,3,5,5,-6,1,4,229,3
4,3,6,5,-6,1,9,244,3
4,3,7,5,-6,1,8,236,3
4,3,8,5,-6,1,1,227,3
4,3,9,5,-6,1,8,274,3
4,3,10,5,-6,1,6,254,3
4,4,1,8,-5,2,2,3.3396e+05,2
4,4,2,8,-5,2,-1,259,2
4,4,3,8,-5,2,3,238,2
4,4,4,8,-5,2,1,247,2
4,4,5,8,-5,2,-12,214,2
4,4,6,8,-5,1,8,417,2
4,4,7,8,-5,1,8,240,2
4,4,8,8,-5,1,8,209,2
4,4,9,8,-5,1,8,209,2
4,4,10,8,-5,1,8,234,2
4,5,1,-4,-3,2,-3,776,1
4,5,2,-4,-3,1,-11,307,1
4,5,3,-4,-3,2,-3,264,1
4,5,4,-4,-3,1,3,268,1
4,5,5,-4,-3,2,-3,305,1
4,5,6,-4,-3,1,-2,283,1
4,5,7,-4,-3,2,-3,275,1
4,5,8,-4,-3,1,3,289,1
4,5,9,-4,-3,1,0,237,1
4,5,10,-4,-3,1,-3,224,1
4,6,1,-14,5,2,5,586,1
4,6,2,-14,5,2,5,252,1
4,6,3,-14,5,2,5,240,1
4,6,4,-14,5,1,-3,223,1
4,6,5,-14,5,2,5,205,1
4,6,6,-14,5,2,5,232,1
4,6,7,-14,5,2,5,235,1
4,6,8,-14,5,2,5,244,1
4,6,9,-14,5,2,5,227,1
4,6,10,-14,5,2,5,195,1
4,7,1,-10,0,2,3,572,3
4,7,2,-10,0,2,5,266,3
4,7,3,-10,0,1,0,358,3
4,7,4,-10,0,1,-2,356,3
4,7,5,-10,0,2,-5,624,3
4,7,6,-10,0,2,1,229,3
4,7,7,-10,0,2,12,333,3
4,7,8,-10,0,2,3,240,3
4,7,9,-10,0,2,3,220,3
4,7,10,-10,0,2,-4,228,3
4,8,1,-3,-9,2,-7,616,2
4,8,2,-3,-9,2,-16,297,2
4,8,3,-3,-9,1,-3,223,2
4,8,4,-3,-9,1,-3,244,2
4,8,5,-3,-9,1,-3,228,2
4,8,6,-3,-9,1,-3,673,2
4,8,7,-3,-9,1,-3,257,2
4,8,8,-3,-9,1,-3,259,2
4,8,9,-3,-9,1,-3,520,2
4,8,10,-3,-9,1,-3,413,2
4,9,1,2,11,2,11,347,1
4,9,2,2,11,2,11,250,1
4,9,3,2,11,1,3,264,1
4,9,4,2,11,2,11,260,1
4,9,5,2,11,2,11,221,1
4,9,6,2,11,2,11,630,1
4,9,7,2,11,2,11,209,1
4,9,8,2,11,2,11,227,1
4,9,9,2,11,2,11,242,1
4,9,10,2,11,2,11,201,1
4,10,1,-5,-1,2,-1,424,4
4,10,2,-5,-1,1,-5,377,4
4,10,3,-5,-1,2,-1,424,4
4,10,4,-5,-1,2,-1,241,4
4,10,5,-5,-1,1,-5,231,4
4,10,6,-5,-1,2,-1,236,4
4,10,7,-5,-1,2,-1,755,4
4,10,8,-5,-1,2,-1,770,4
4,10,9,-5,-1,2,-1,812,4
4,10,10,-5,-1,2,-1,273,4
4,11,1,-5,10,2,17,503,2
4,11,2,-5,10,2,18,388,2
4,11,3,-5,10,1,-5,321,2
4,11,4,-5,10,2,5,219,2
4,11,5,-5,10,2,6,248,2
4,11,6,-5,10,2,10,291,2
4,11,7,-5,10,2,3,249,2
4,11,8,-5,10,2,19,235,2
4,11,9,-5,10,2,5,234,2
4,11,10,-5,10,2,15,249,2
4,12,1,6,22,2,22,720,4
4,12,2,6,22,2,22,257,4
4,12,3,6,22,2,22,232,4
4,12,4,6,22,2,22,236,4
4,12,5,6,22,2,22,247,4
4,12,6,6,22,2,22,241,4
4,12,7,6,22,2,22,244,4
4,12,8,6,22,2,22,231,4
4,12,9,6,22,2,22,225,4
4,12,10,6,22,2,22,242,4
4,13,1,-14,6,2,6,675,1
4,13,2,-14,6,2,6,245,1
4,13,3,-14,6,2,6,236,1
4,13,4,-14,6,1,-18,238,1
4,13,5,-14,6,2,6,261,1
4,13,6,-14,6,2,6,226,1
4,13,7,-14,6,2,6,253,1
4,13,8,-14,6,2,6,235,1
4,13,9,-14,6,2,6,237,1
4,13,10,-14,6,2,6,231,1
4,14,1,-14,16,2,16,399,1
4,14,2,-14,16,2,16,262,1
4,14,3,-14,16,1,-8,598,1
4,14,4,-14,16,2,16,187,1
4,14,5,-14,16,2,16,216,1
4,14,6,-14,16,2,16,270,1
4,14,7,-14,16,2,16,233,1
4,14,8,-14,16,2,16,228,1
4,14,9,-14,16,2,16,216,1
4,14,10,-14,16,2,16,251,1
4,15,1,5,12,2,12,399,4
4,15,2,5,12,1,5,295,4
4,15,3,5,12,2,12,232,4
4,15,4,5,12,1,5,273,4
4,15,5,5,12,2,12,250,4
4,15,6,5,12,2,12,236,4
4,15,7,5,12,2,12,233,4
4,15,8,5,12,2,12,232,4
4,15,9,5,12,2,12,707,4
4,15,10,5,12,2,12,241,4
4,16,1,0,3,2,3,489,1
4,16,2,0,3,2,3,242,1
4,16,3,0,3,1,-3,265,1
4,16,4,0,3,2,3,376,1
4,16,5,0,3,2,3,244,1
4,16,6,0,3,2,3,229,1
4,16,7,0,3,2,3,219,1
4,16,8,0,3,2,3,244,1
4,16,9,0,3,2,3,216,1
4,16,10,0,3,2,3,260,1
4,17,1,-4,7,2,2,390,3
4,17,2,-4,7,1,-13,313,3
4,17,3,-4,7,2,5,225,3
4,17,4,-4,7,2,25,266,3
4,17,5,-4,7,2,-1,247,3
4,17,6,-4,7,2,9,232,3
4,17,7,-4,7,2,-1,241,3
4,17,8,-4,7,2,9,224,3
4,17,9,-4,7,2,12,237,3
4,17,10,-4,7,2,13,222,3
4,18,1,3,-14,2,-8,477,3
4,18,2,3,-14,1,7,289,3
4,18,3,3,-14,1,5,248,3
4,18,4,3,-14,1,4,769,3
4,18,5,3,-14,1,12,254,3
4,18,6,3,-14,1,5,280,3
4,18,7,3,-14,1,2,245,3
4,18,8,3,-14,1,6,234,3
4,18,9,3,-14,1,4,238,3
4,18,10,3,-14,1,3,237,3
4,19,1,-5,2,2,2,388,4
4,19,2,-5,2,1,-5,255,4
4,19,3,-5,2,2,2,283,4
4,19,4,-5,2,1,-5,250,4
4,19,5,-5,2,2,2,249,4
4,19,6,-5,2,2,2,246,4
4,19,7,-5,2,2,2,230,4
4,19,8,-5,2,2,2,263,4
4,19,9,-5,2,2,2,242,4
4,19,10,-5,2,2,2,244,4
4,20,1,-2,7,2,7,488,1
4,20,2,-2,7,1,-3,253,1
4,20,3,-2,7,2,7,227,1
4,20,4,-2,7,2,7,237,1
4,20,5,-2,7,2,7,229,1
4,20,6,-2,7,2,7,239,1
4,20,7,-2,7,2,7,244,1
4,20,8,-2,7,2,7,253,1
4,20,9,-2,7,2,7,223,1
4,20,10,-2,7,2,7,223,1
4,21,1,1,1,2,12,1647,3
4,21,2,1,1,1,-1,271,3
4,21,3,1,1,2,6,227,3
4,21,4,1,1,2,5,240,3
4,21,5,1,1,2,13,231,3
4,21,6,1,1,2,-8,236,3
4,21,7,1,1,2,-8,229,3
4,21,8,1,1,2,2,529,3
4,21,9,1,1,2,2,259,3
4,21,10,1,1,2,-1,221,3
4,22,1,7,-14,2,-17,404,2
4,22,2,7,-14,1,7,302,2
4,22,3,7,-14,1,7,230,2
4,22,4,7,-14,1,7,199,2
4,22,5,7,-14,1,7,202,2
4,22,6,7,-14,1,7,213,2
4,22,7,7,-14,1,7,220,2
4,22,8,7,-14,1,7,207,2
4,22,9,7,-14,1,7,204,2
4,22,10,7,-14,1,7,232,2
4,23,1,-1,10,2,8,480,3
4,23,2,-1,10,1,-5,402,3
4,23,3,-1,10,1,3,1094,3
4,23,4,-1,10,2,10,402,3
4,23,5,-1,10,2,5,199,3
4,23,6,-1,10,2,13,203,3
4,23,7,-1,10,2,12,233,3
4,23,8,-1,10,2,16,345,3
4,23,9,-1,10,2,17,245,3
4,23,10,-1,10,2,15,224,3
4,24,1,-10,13,2,10,400,3
4,24,2,-10,13,1,-11,309,3
4,24,3,-10,13,2,7,287,3
4,24,4,-10,13,2,11,226,3
4,24,5,-10,13,2,8,234,3
4,24,6,-10,13,2,15,230,3
4,24,7,-10,13,2,13,248,3
4,24,8,-10,13,2,11,227,3
4,24,9,-10,13,2,17,236,3
4,24,10,-10,13,2,27,239,3
4,25,1,20,-12,2,1,400,2
4,25,2,20,-12,2,-12,273,2
4,25,3,20,-12,1,20,404,2
4,25,4,20,-12,1,20,261,2
4,25,5,20,-12,1,20,221,2
4,25,6,20,-12,1,20,228,2
4,25,7,20,-12,1,20,234,2
4,25,8,20,-12,1,20,721,2
4,25,9,20,-12,1,20,230,2
4,25,10,20,-12,1,20,226,2
4,26,1,16,4,1,23,508,1
4,26,2,16,4,1,22,335,1
4,26,3,16,4,1,13,245,1
4,26,4,16,4,1,4,209,1
4,26,5,16,4,1,22,212,1
4,26,6,16,4,1,21,218,1
4,26,7,16,4,1,11,235,1
4,26,8,16,4,1,25,214,1
4,26,9,16,4,1,14,239,1
4,26,10,16,4,1,3,209,1
4,27,1,-4,-11,1,-4,469,2
4,27,2,-4,-11,2,-17,456,2
4,27,3,-4,-11,1,-4,709,2
4,27,4,-4,-11,2,-18,275,2
4,27,5,-4,-11,1,-4,288,2
4,27,6,-4,-11,1,-4,247,2
4,27,7,-4,-11,1,-4,251,2
4,27,8,-4,-11,1,-4,223,2
4,27,9,-4,-11,1,-4,196,2
4,27,10,-4,-11,1,-4,226,2
4,28,1,-8,2,1,-8,446,4
4,28,2,-8,2,2,2,332,4
4,28,3,-8,2,2,2,271,4
4,28,4,-8,2,2,2,268,4
4,28,5,-8,2,2,2,235,4
4,28,6,-8,2,2,2,240,4
4,28,7,-8,2,2,2,241,4
4,28,8,-8,2,2,2,258,4
4,28,9,-8,2,2,2,244,4
4,28,10,-8,2,2,2,290,4
4,29,1,4,4,2,4,426,4
4,29,2,4,4,1,4,418,4
4,29,3,4,4,1,4,311,4
4,29,4,4,4,2,4,227,4
4,29,5,4,4,1,4,262,4
4,29,6,4,4,2,4,242,4
4,29,7,4,4,1,4,253,4
4,29,8,4,4,2,4,267,4
4,29,9,4,4,1,4,305,4
4,29,10,4,4,2,4,303,4
4,30,1,6,10,1,3,393,1
4,30,2,6,10,2,10,475,1
4,30,3,6,10,2,10,268,1
4,30,4,6,10,2,10,224,1
4,30,5,6,10,2,10,250,1
4,30,6,6,10,2,10,233,1
4,30,7,6,10,2,10,238,1
4,30,8,6,10,2,10,270,1
4,30,9,6,10,2,10,251,1
4,30,10,6,10,2,10,276,1
5,1,1,9,-1,2,-1,16303,1
5,1,2,9,-1,2,-1,2287,1
5,1,3,9,-1,2,-1,509,1
5,1,4,9,-1,1,7,410,1
5,1,5,9,-1,1,10,377,1
5,1,6,9,-1,1,10,330,1
5,1,7,9,-1,1,12,387,1
5,1,8,9,-1,1,6,361,1
5,1,9,9,-1,1,15,337,1
5,1,10,9,-1,1,1,360,1
5,2,1,-20,7,2,7,2439,1
5,2,2,-20,7,2,7,343,1
5,2,3,-20,7,2,7,290,1
5,2,4,-20,7,2,7,299,1
5,2,5,-20,7,2,7,309,1
5,2,6,-20,7,2,7,398,1
5,2,7,-20,7,2,7,366,1
5,2,8,-20,7,2,7,330,1
5,2,9,-20,7,2,7,341,1
5,2,10,-20,7,2,7,349,1
5,3,1,1,-2,1,2,1115,1
5,3,2,1,-2,1,2,253,1
5,3,3,1,-2,1,3,258,1
5,3,4,1,-2,2,-2,287,1
5,3,5,1,-2,2,-2,497,1
5,3,6,1,-2,1,2,302,1
5,3,7,1,-2,1,3,328,1
5,3,8,1,-2,1,6,304,1
5,3,9,1,-2,1,10,305,1
5,3,10,1,-2,1,7,325,1
5,4,1,2,-6,1,14,1782,3
5,4,2,2,-6,1,-1,284,3
5,4,3,2,-6,2,-13,414,3
5,4,4,2,-6,1,7,335,3
5,4,5,2,-6,1,-2,324,3
5,4,6,2,-6,1,-3,288,3
5,4,7,2,-6,1,3,284,3
5,4,8,2,-6,1,-1,268,3
5,4,9,2,-6,1,1,318,3
5,4,10,2,-6,1,-6,314,3
5,5,1,-3,5,1,-3,645,1
5,5,2,-3,5,2,5,607,1
5,5,3,-3,5,2,5,291,1
5,5,4,-3,5,2,5,285,1
5,5,5,-3,5,2,5,277,1
5,5,6,-3,5,2,5,293,1
5,5,7,-3,5,2,5,292,1
5,5,8,-3,5,2,5,307,1
5,5,9,-3,5,2,5,293,1
5,5,10,-3,5,2,5,328,1
5,6,1,12,8,1,15,667,3
5,6,2,12,8,1,13,301,3
5,6,3,12,8,1,21,297,3
5,6,4,12,8,1,19,299,3
5,6,5,12,8,1,-2,299,3
5,6,6,12,8,1,14,545,3
5,6,7,12,8,1,19,310,3
5,6,8,12,8,1,13,324,3
5,6,9,12,8,1,14,315,3
5,6,10,12,8,1,-4,321,3
5,7,1,3,1,1,3,579,4
5,7,2,3,1,2,1,509,4
5,7,3,3,1,1,3,286,4
5,7,4,3,1,1,3,257,4
5,7,5,3,1,1,3,865,4
5,7,6,3,1,1,3,292,4
5,7,7,3,1,1,3,320,4
5,7,8,3,1,1,3,332,4
5,7,9,3,1,1,3,326,4
5,7,10,3,1,1,3,314,4
5,8,1,-5,-4,1,-5,493,3
5,8,2,-5,-4,2,-5,869,3
5,8,3,-5,-4,1,-13,348,3
5,8,4,-5,-4,2,-6,302,3
5,8,5,-5,-4,1,-8,425,3
5,8,6,-5,-4,2,-12,337,3
5,8,7,-5,-4,1,-6,391,3
5,8,8,-5,-4,2,-4,378,3
5,8,9,-5,-4,2,2,310,3
5,8,10,-5,-4,2,3,344,3
5,9,1,0,1,1,0,880,4
5,9,2,0,1,2,1,385,4
5,9,3,0,1,2,1,655,4
5,9,4,0,1,2,1,414,4
5,9,5,0,1,2,1,298,4
5,9,6,0,1,2,1,305,4
5,9,7,0,1,2,1,341,4
5,9,8,0,1,2,1,310,4
5,9,9,0,1,2,1,322,4
5,9,10,0,1,2,1,308,4
5,10,1,-15,-12,1,-4,496,1
5,10,2,-15,-12,2,-12,785,1
5,10,3,-15,-12,1,-17,356,1
5,10,4,-15,-12,1,-9,435,1
5,10,5,-15,-12,1,-10,319,1
5,10,6,-15,-12,1,-6,391,1
5,10,7,-15,-12,1,-20,348,1
5,10,8,-15,-12,2,-12,419,1
5,10,9,-15,-12,1,-21,587,1
5,10,10,-15,-12,1,-9,350,1
5,11,1,12,6,1,12,470,4
5,11,2,12,6,2,6,375,4
5,11,3,12,6,1,12,339,4
5,11,4,12,6,1,12,231,4
5,11,5,12,6,1,12,345,4
5,11,6,12,6,1,12,309,4
5,11,7,12,6,1,12,316,4
5,11,8,12,6,1,12,304,4
5,11,9,12,6,1,12,295,4
5,11,10,12,6,1,12,326,4
5,12,1,-6,3,1,-14,624,1
5,12,2,-6,3,2,3,357,1
5,12,3,-6,3,1,-9,505,1
5,12,4,-6,3,1,-1,600,1
5,12,5,-6,3,1,-17,251,1
5,12,6,-6,3,2,3,304,1
5,12,7,-6,3,2,3,302,1
5,12,8,-6,3,2,3,317,1
5,12,9,-6,3,2,3,300,1
5,12,10,-6,3,2,3,310,1
5,13,1,-4,10,1,-4,712,4
5,13,2,-4,10,2,10,367,4
5,13,3,-4,10,2,10,328,4
5,13,4,-4,10,2,10,290,4
5,13,5,-4,10,2,10,314,4
5,13,6,-4,10,2,10,302,4
5,13,7,-4,10,2,10,322,4
5,13,8,-4,10,2,10,329,4
5,13,9,-4,10,2,10,303,4
5,13,10,-4,10,2,10,304,4
5,14,1,1,13,1,1,525,4
5,14,2,1,13,2,13,332,4
5,14,3,1,13,2,13,294,4
5,14,4,1,13,2,13,314,4
5,14,5,1,13,2,13,314,4
5,14,6,1,13,2,13,302,4
5,14,7,1,13,2,13,307,4
5,14,8,1,13,2,13,323,4
5,14,9,1,13,2,13,297,4
5,14,10,1,13,2,13,311,4
5,15,1,0,-2,1,0,683,4
5,15,2,0,-2,2,-2,359,4
5,15,3,0,-2,1,0,300,4
5,15,4,0,-2,1,0,235,4
5,15,5,0,-2,1,0,332,4
5,15,6,0,-2,1,0,286,4
5,15,7,0,-2,1,0,889,4
5,15,8,0,-2,1,0,314,4
5,15,9,0,-2,1,0,337,4
5,15,10,0,-2,1,0,297,4
5,16,1,-5,13,1,-5,658,1
5,16,2,-5,13,2,13,350,1
5,16,3,-5,13,2,13,339,1
5,16,4,-5,13,2,13,334,1
5,16,5,-5,13,2,13,303,1
5,16,6,-5,13,2,13,247,1
5,16,7,-5,13,2,13,282,1
5,16,8,-5,13,2,13,283,1
5,16,9,-5,13,2,13,303,1
5,16,10,-5,13,2,13,336,1
5,17,1,-12,1,1,-4,518,3
5,17,2,-12,1,2,2,384,3
5,17,3,-12,1,2,3,286,3
5,17,4,-12,1,2,0,267,3
5,17,5,-12,1,2,0,308,3
5,17,6,-12,1,2,-4,339,3
5,17,7,-12,1,2,-9,340,3
5,17,8,-12,1,1,-19,1014,3
5,17,9,-12,1,2,3,430,3
5,17,10,-12,1,2,-13,323,3
5,18,1,8,5,1,8,482,2
5,18,2,8,5,2,9,404,2
5,18,3,8,5,2,4,346,2
5,18,4,8,5,2,4,336,2
5,18,5,8,5,2,5,404,2
5,18,6,8,5,2,9,363,2
5,18,7,8,5,1,8,381,2
5,18,8,8,5,2,-4,288,2
5,18,9,8,5,2,8,403,2
5,18,10,8,5,1,8,626,2
5,19,1,-15,-22,1,-17,857,3
5,19,2,-15,-22,2,-18,420,3
5,19,3,-15,-22,1,-12,313,3
5,19,4,-15,-22,2,-22,293,3
5,19,5,-15,-22,1,-12,322,3
5,19,6,-15,-22,2,-39,313,3
5,19,7,-15,-22,1,-9,279,3
5,19,8,-15,-22,1,-15,297,3
5,19,9,-15,-22,1,-22,293,3
5,19,10,-15,-22,1,-13,343,3
5,20,1,4,-12,1,1,481,3
5,20,2,4,-12,2,-16,370,3
5,20,3,4,-12,1,-4,515,3
5,20,4,4,-12,1,0,322,3
5,20,5,4,-12,1,0,259,3
5,20,6,4,-12,1,20,309,3
5,20,7,4,-12,1,4,304,3
5,20,8,4,-12,1,7,300,3
5,20,9,4,-12,1,5,284,3
5,20,10,4,-12,1,0,320,3
5,21,1,2,-5,1,-5,434,3
5,21,2,2,-5,2,-9,307,3
5,21,3,2,-5,1,2,578,3
5,21,4,2,-5,2,-8,287,3
5,21,5,2,-5,1,0,332,3
5,21,6,2,-5,2,-5,290,3
5,21,7,2,-5,1,15,316,3
5,21,8,2,-5,1,4,1083,3
5,21,9,2,-5,1,5,372,3
5,21,10,2,-5,1,-2,334,3
5,22,1,-7,-7,1,-7,564,4
5,22,2,-7,-7,2,-7,331,4
5,22,3,-7,-7,1,-7,345,4
5,22,4,-7,-7,2,-7,313,4
5,22,5,-7,-7,1,-7,327,4
5,22,6,-7,-7,2,-7,330,4
5,22,7,-7,-7,1,-7,307,4
5,22,8,-7,-7,1,-7,299,4
5,22,9,-7,-7,1,-7,322,4
5,22,10,-7,-7,1,-7,326,4
5,23,1,6,-3,1,4,416,1
5,23,2,6,-3,2,-3,391,1
5,23,3,6,-3,1,6,388,1
5,23,4,6,-3,1,11,353,1
5,23,5,6,-3,1,18,376,1
5,23,6,6,-3,1,7,321,1
5,23,7,6,-3,1,9,311,1
5,23,8,6,-3,1,9,309,1
5,23,9,6,-3,1,9,304,1
5,23,10,6,-3,1,5,367,1
5,24,1,3,12,1,-4,407,1
5,24,2,3,12,2,12,423,1
5,24,3,3,12,2,12,316,1
5,24,4,3,12,2,12,321,1
5,24,5,3,12,2,12,324,1
5,24,6,3,12,2,12,310,1
5,24,7,3,12,2,12,276,1
5,24,8,3,12,2,12,316,1
5,24,9,3,12,2,12,311,1
5,24,10,3,12,2,12,302,1
5,25,1,-5,-4,1,2,441,3
5,25,2,-5,-4,2,-7,319,3
5,25,3,-5,-4,1,-3,312,3
5,25,4,-5,-4,2,3,395,3
5,25,5,-5,-4,2,1,450,3
5,25,6,-5,-4,1,1,1113,3
5,25,7,-5,-4,2,5,372,3
5,25,8,-5,-4,1,-6,1885,3
5,25,9,-5,-4,2,-2,385,3
5,25,10,-5,-4,1,-1,505,3
5,26,1,0,-10,1,2,539,3
5,26,2,0,-10,2,-9,349,3
5,26,3,0,-10,1,-6,313,3
5,26,4,0,-10,2,-3,329,3
5,26,5,0,-10,1,-13,332,3
5,26,6,0,-10,2,-5,348,3
5,26,7,0,-10,1,9,329,3
5,26,8,0,-10,2,-3,380,3
5,26,9,0,-10,1,4,334,3
5,26,10,0,-10,1,3,297,3
5,27,1,-15,-3,1,-8,482,3
5,27,2,-15,-3,2,-3,344,3
5,27,3,-15,-3,1,-18,308,3
5,27,4,-15,-3,2,-6,308,3
5,27,5,-15,-3,2,-4,348,3
5,27,6,-15,-3,2,-3,311,3
5,27,7,-15,-3,2,-15,299,3
5,27,8,-15,-3,2,-8,432,3
5,27,9,-15,-3,2,-4,396,3
5,27,10,-15,-3,2,-7,386,3
5,28,1,-2,9,1,-2,413,4
5,28,2,-2,9,2,9,334,4
5,28,3,-2,9,2,9,345,4
5,28,4,-2,9,2,9,318,4
5,28,5,-2,9,2,9,328,4
5,28,6,-2,9,2,9,342,4
5,28,7,-2,9,2,9,545,4
5,28,8,-2,9,2,9,354,4
5,28,9,-2,9,2,9,330,4
5,28,10,-2,9,2,9,381,4
5,29,1,12,17,1,11,555,3
5,29,2,12,17,2,23,343,3
5,29,3,12,17,2,19,298,3
5,29,4,12,17,2,17,345,3
5,29,5,12,17,2,14,289,3
5,29,6,12,17,2,19,308,3
5,29,7,12,17,2,24,277,3
5,29,8,12,17,2,25,329,3
5,29,9,12,17,2,15,332,3
5,29,10,12,17,2,24,376,3
5,30,1,2,1,1,2,460,2
5,30,2,2,1,2,-5,364,2
5,30,3,2,1,1,2,716,2
5,30,4,2,1,2,-3,368,2
5,30,5,2,1,2,13,371,2
5,30,6,2,1,2,-6,344,2
5,30,7,2,1,2,7,326,2
5,30,8,2,1,2,5,333,2
5,30,9,2,1,2,6,367,2
5,30,10,2,1,2,-4,359,2
6,1,1,9,8,1,1,4846,3
6,1,2,9,8,1,1,1357,3
6,1,3,9,8,2,0,1353,3
6,1,4,9,8,1,3,1042,3
6,1,5,9,8,1,9,1142,3
6,1,6,9,8,1,3,1010,3
6,1,7,9,8,2,13,1490,3
6,1,8,9,8,2,8,1104,3
6,1,9,9,8,1,15,1048,3
6,1,10,9,8,1,9,1173,3
6,2,1,-12,6,2,6,2029,4
6,2,2,-12,6,1,-12,1006,4
6,2,3,-12,6,2,6,1032,4
6,2,4,-12,6,2,6,1586,4
6,2,5,-12,6,2,6,985,4
6,2,6,-12,6,2,6,990,4
6,2,7,-12,6,2,6,964,4
6,2,8,-12,6,1,-12,951,4
6,2,9,-12,6,2,6,999,4
6,2,10,-12,6,2,6,1014,4
6,3,1,-2,-11,1,-2,1928,4
6,3,2,-2,-11,2,-11,911,4
6,3,3,-2,-11,1,-2,984,4
6,3,4,-2,-11,1,-2,971,4
6,3,5,-2,-11,2,-11,904,4
6,3,6,-2,-11,1,-2,928,4
6,3,7,-2,-11,1,-2,843,4
6,3,8,-2,-11,1,-2,851,4
6,3,9,-2,-11,1,-2,865,4
6,3,10,-2,-11,1,-2,924,4
6,4,1,-3,7,2,0,2482,2
6,4,2,-3,7,1,-3,1060,2
6,4,3,-3,7,2,13,870,2
6,4,4,-3,7,2,6,990,2
6,4,5,-3,7,2,2,971,2
6,4,6,-3,7,1,-3,931,2
6,4,7,-3,7,2,0,925,2
6,4,8,-3,7,2,24,944,2
6,4,9,-3,7,2,10,958,2
6,4,10,-3,7,2,2,969,2
6,5,1,9,-1,1,5,1699,3
6,5,2,9,-1,2,8,985,3
6,5,3,9,-1,2,-1,983,3
6,5,4,9,-1,2,-11,1192,3
6,5,5,9,-1,1,12,968,3
6,5,6,9,-1,1,3,957,3
6,5,7,9,-1,1,6,934,3
6,5,8,9,-1,1,5,888,3
6,5,9,9,-1,1,14,889,3
6,5,10,9,-1,1,-3,953,3
6,6,1,0,11,2,11,1578,4
6,6,2,0,11,1,0,940,4
6,6,3,0,11,2,11,917,4
6,6,4,0,11,2,11,978,4
6,6,5,0,11,2,11,1004,4
6,6,6,0,11,2,11,1004,4
6,6,7,0,11,2,11,861,4
6,6,8,0,11,2,11,897,4
6,6,9,0,11,2,11,2891,4
6,6,10,0,11,2,11,903,4
6,7,1,-12,6,1,-6,1656,1
6,7,2,-12,6,2,6,937,1
6,7,3,-12,6,2,6,998,1
6,7,4,-12,6,1,-23,942,1
6,7,5,-12,6,1,-6,963,1
6,7,6,-12,6,2,6,963,1
6,7,7,-12,6,2,6,992,1
6,7,8,-12,6,2,6,3949,1
6,7,9,-12,6,2,6,798,1
6,7,10,-12,6,2,6,888,1
6,8,1,2,-9,2,-6,1505,3
6,8,2,2,-9,1,-7,871,3
6,8,3,2,-9,1,7,859,3
6,8,4,2,-9,1,-5,958,3
6,8,5,2,-9,1,7,906,3
6,8,6,2,-9,1,-1,951,3
6,8,7,2,-9,2,-9,877,3
6,8,8,2,-9,2,-2,902,3
6,8,9,2,-9,1,9,903,3
6,8,10,2,-9,1,4,1015,3
6,9,1,-12,-3,2,-3,1676,1
6,9,2,-12,-3,1,-11,965,1
6,9,3,-12,-3,1,-11,940,1
6,9,4,-12,-3,1,-6,921,1
6,9,5,-12,-3,1,-13,1880,1
6,9,6,-12,-3,2,-3,971,1
6,9,7,-12,-3,1,-8,941,1
6,9,8,-12,-3,2,-3,932,1
6,9,9,-12,-3,2,-3,963,1
6,9,10,-12,-3,2,-3,985,1
6,10,1,2,-6,2,-6,1495,1
6,10,2,2,-6,1,-2,946,1
6,10,3,2,-6,1,-1,863,1
6,10,4,2,-6,1,3,996,1
6,10,5,2,-6,1,12,952,1
6,10,6,2,-6,1,10,938,1
6,10,7,2,-6,1,6,964,1
6,10,8,2,-6,1,0,939,1
6,10,9,2,-6,1,0,903,1
6,10,10,2,-6,1,5,1004,1
6,11,1,15,-5,2,-5,3764,4
6,11,2,15,-5,1,15,1877,4
6,11,3,15,-5,1,15,3381,4
6,11,4,15,-5,1,15,956,4
6,11,5,15,-5,1,15,969,4
6,11,6,15,-5,1,15,1032,4
6,11,7,15,-5,1,15,892,4
6,11,8,15,-5,1,15,926,4
6,11,9,15,-5,1,15,906,4
6,11,10,15,-5,1,15,1056,4
6,12,1,9,-3,2,-9,1368,3
6,12,2,9,-3,1,6,992,3
6,12,3,9,-3,1,2,991,3
6,12,4,9,-3,1,12,958,3
6,12,5,9,-3,1,3,931,3
6,12,6,9,-3,1,1,874,3
6,12,7,9,-3,1,13,943,3
6,12,8,9,-3,1,1,946,3
6,12,9,9,-3,1,3,924,3
6,12,10,9,-3,1,18,879,3
6,13,1,5,14,2,14,1713,4
6,13,2,5,14,2,14,976,4
6,13,3,5,14,1,5,1028,4
6,13,4,5,14,2,14,992,4
6,13,5,5,14,2,14,965,4
6,13,6,5,14,2,14,1014,4
6,13,7,5,14,2,14,1216,4
6,13,8,5,14,2,14,1077,4
6,13,9,5,14,2,14,1004,4
6,13,10,5,14,2,14,1039,4
6,14,1,8,2,2,2,1779,1
6,14,2,8,2,1,13,999,1
6,14,3,8,2,1,6,943,1
6,14,4,8,2,1,-1,921,1
6,14,5,8,2,1,10,871,1
6,14,6,8,2,1,9,880,1
6,14,7,8,2,1,4,876,1
6,14,8,8,2,1,11,927,1
6,14,9,8,2,1,4,959,1
6,14,10,8,2,1,12,923,1
6,15,1,10,4,2,4,1381,4
6,15,2,10,4,1,10,987,4
6,15,3,10,4,1,10,939,4
6,15,4,10,4,1,10,912,4
6,15,5,10,4,1,10,887,4
6,15,6,10,4,1,10,1307,4
6,15,7,10,4,1,10,916,4
6,15,8,10,4,1,10,887,4
6,15,9,10,4,1,10,1768,4
6,15,10,10,4,1,10,920,4
6,16,1,11,9,1,11,1904,4
6,16,2,11,9,2,9,1329,4
6,16,3,11,9,1,11,977,4
6,16,4,11,9,1,11,966,4
6,16,5,11,9,1,11,987,4
6,16,6,11,9,1,11,1087,4
6,16,7,11,9,1,11,996,4
6,16,8,11,9,1,11,1037,4
6,16,9,11,9,1,11,924,4
6,16,10,11,9,1,11,841,4
6,17,1,12,1,2,1,1624,4
6,17,2,12,1,1,12,939,4
6,17,3,12,1,1,12,891,4
6,17,4,12,1,1,12,877,4
6,17,5,12,1,1,12,955,4
6,17,6,12,1,1,12,903,4
6,17,7,12,1,1,12,773,4
6,17,8,12,1,1,12,1316,4
6,17,9,12,1,1,12,3615,4
6,17,10,12,1,1,12,872,4
6,18,1,-7,4,1,-10,1476,1
6,18,2,-7,4,2,4,903,1
6,18,3,-7,4,1,-12,868,1
6,18,4,-7,4,1,-7,847,1
6,18,5,-7,4,1,-11,825,1
6,18,6,-7,4,2,4,837,1
6,18,7,-7,4,2,4,913,1
6,18,8,-7,4,2,4,959,1
6,18,9,-7,4,2,4,1037,1
6,18,10,-7,4,2,4,930,1
6,19,1,-3,9,2,9,1056,4
6,19,2,-3,9,1,-3,1064,4
6,19,3,-3,9,2,9,3763,4
6,19,4,-3,9,2,9,903,4
6,19,5,-3,9,2,9,912,4
6,19,6,-3,9,2,9,952,4
6,19,7,-3,9,2,9,1960,4
6,19,8,-3,9,2,9,1081,4
6,19,9,-3,9,2,9,1044,4
6,19,10,-3,9,2,9,928,4
6,20,1,3,13,2,15,1043,3
6,20,2,3,13,2,6,987,3
6,20,3,3,13,1,1,961,3
6,20,4,3,13,2,19,922,3
6,20,5,3,13,2,24,1015,3
6,20,6,3,13,2,19,30506,3
6,20,7,3,13,2,21,922,3
6,20,8,3,13,2,4,1026,3
6,20,9,3,13,2,15,943,3
6,20,10,3,13,2,15,986,3
6,21,1,8,9,2,9,942,3
6,21,2,8,9,1,6,918,3
6,21,3,8,9,1,-3,950,3
6,21,4,8,9,2,1,890,3
6,21,5,8,9,2,2,941,3
6,21,6,8,9,2,5,925,3
6,21,7,8,9,2,14,984,3
6,21,8,8,9,2,12,962,3
6,21,9,8,9,2,4,956,3
6,21,10,8,9,1,8,895,3
6,22,1,-3,-8,2,-13,1155,2
6,22,2,-3,-8,1,-3,1183,2
6,22,3,-3,-8,2,-15,1083,2
6,22,4,-3,-8,2,-6,955,2
6,22,5,-3,-8,2,-4,929,2
6,22,6,-3,-8,2,-7,857,2
6,22,7,-3,-8,1,-3,847,2
6,22,8,-3,-8,1,-3,3441,2
6,22,9,-3,-8,1,-3,1006,2
6,22,10,-3,-8,1,-3,1146,2
6,23,1,2,-16,2,-16,1200,1
6,23,2,2,-16,1,16,968,1
6,23,3,2,-16,1,4,956,1
6,23,4,2,-16,1,0,843,1
6,23,5,2,-16,1,1,919,1
6,23,6,2,-16,1,14,876,1
6,23,7,2,-16,1,3,867,1
6,23,8,2,-16,1,8,936,1
6,23,9,2,-16,1,1,899,1
6,23,10,2,-16,1,8,832,1
6,24,1,15,9,1,6,1343,1
6,24,2,15,9,2,9,932,1
6,24,3,15,9,1,20,972,1
6,24,4,15,9,1,26,906,1
6,24,5,15,9,1,13,895,1
6,24,6,15,9,1,6,881,1
6,24,7,15,9,1,15,920,1
6,24,8,15,9,1,15,923,1
6,24,9,15,9,1,14,858,1
6,24,10,15,9,1,11,976,1
6,25,1,-4,-3,2,-3,1051,4
6,25,2,-4,-3,1,-4,804,4
6,25,3,-4,-3,2,-3,927,4
6,25,4,-4,-3,2,-3,890,4
6,25,5,-4,-3,2,-3,899,4
6,25,6,-4,-3,2,-3,939,4
6,25,7,-4,-3,2,-3,953,4
6,25,8,-4,-3,2,-3,1449,4
6,25,9,-4,-3,2,-3,1094,4
6,25,10,-4,-3,2,-3,1040,4
6,26,1,-8,-1,2,9,1725,2
6,26,2,-8,-1,1,-8,837,2
6,26,3,-8,-1,2,-3,922,2
6,26,4,-8,-1,2,-2,924,2
6,26,5,-8,-1,2,2,883,2
6,26,6,-8,-1,2,1,940,2
6,26,7,-8,-1,2,-4,960,2
6,26,8,-8,-1,2,-3,925,2
6,26,9,-8,-1,2,7,895,2
6,26,10,-8,-1,2,-2,4535,2
6,27,1,-7,-3,2,-7,1099,3
6,27,2,-7,-3,1,-7,911,3
6,27,3,-7,-3,1,-10,907,3
6,27,4,-7,-3,2,-8,1000,3
6,27,5,-7,-3,2,7,936,3
6,27,6,-7,-3,2,6,1054,3
6,27,7,-7,-3,1,-8,983,3
6,27,8,-7,-3,2,-2,944,3
6,27,9,-7,-3,2,0,978,3
6,27,10,-7,-3,2,-5,972,3
6,28,1,0,-9,2,-9,1129,1
6,28,2,0,-9,1,-3,944,1
6,28,3,0,-9,1,1,890,1
6,28,4,0,-9,1,1,956,1
6,28,5,0,-9,1,13,1020,1
6,28,6,0,-9,1,-2,989,1
6,28,7,0,-9,1,-2,960,1
6,28,8,0,-9,1,2,935,1
6,28,9,0,-9,1,-2,906,1
6,28,10,0,-9,1,3,969,1
6,29,1,4,7,2,7,1036,4
6,29,2,4,7,1,4,932,4
6,29,3,4,7,2,7,961,4
6,29,4,4,7,2,7,862,4
6,29,5,4,7,2,7,977,4
6,29,6,4,7,2,7,1639,4
6,29,7,4,7,2,7,2838,4
6,29,8,4,7,2,7,3347,4
6,29,9,4,7,2,7,1024,4
6,29,10,4,7,2,7,1128,4
6,30,1,-4,-9,2,-6,1149,3
6,30,2,-4,-9,1,-9,933,3
6,30,3,-4,-9,1,-1,862,3
6,30,4,-4,-9,2,-14,1559,3
6,30,5,-4,-9,1,0,931,3
6,30,6,-4,-9,1,-5,1001,3
6,30,7,-4,-9,2,-5,4989,3
6,30,8,-4,-9,1,3,969,3
6,30,9,-4,-9,1,-6,848,3
6,30,10,-4,-9,1,-5,909,3
7,1,1,17,-12,1,17,2486,2
7,1,2,17,-12,1,17,659,2
7,1,3,17,-12,1,17,407,2
7,1,4,17,-12,1,17,368,2
7,1,5,17,-12,1,17,589,2
7,1,6,17,-12,2,-18,1232,2
7,1,7,17,-12,1,17,381,2
7,1,8,17,-12,1,17,326,2
7,1,9,17,-12,1,17,351,2
7,1,10,17,-12,1,17,352,2
7,2,1,15,7,2,7,1584,4
7,2,2,15,7,1,15,701,4
7,2,3,15,7,1,15,375,4
7,2,4,15,7,1,15,320,4
7,2,5,15,7,1,15,502,4
7,2,6,15,7,1,15,1060,4
7,2,7,15,7,1,15,409,4
7,2,8,15,7,1,15,407,4
7,2,9,15,7,1,15,366,4
7,2,10,15,7,1,15,1036,4
7,3,1,-6,-4,2,-6,1234,3
7,3,2,-6,-4,1,-13,409,3
7,3,3,-6,-4,2,-3,416,3
7,3,4,-6,-4,2,-2,353,3
7,3,5,-6,-4,2,-1,318,3
7,3,6,-6,-4,2,-6,336,3
7,3,7,-6,-4,2,-10,361,3
7,3,8,-6,-4,2,-7,352,3
7,3,9,-6,-4,2,-2,392,3
7,3,10,-6,-4,2,0,351,3
7,4,1,-9,-2,1,-10,839,3
7,4,2,-9,-2,2,1,374,3
7,4,3,-9,-2,2,9,344,3
7,4,4,-9,-2,2,9,318,3
7,4,5,-9,-2,2,3,330,3
7,4,6,-9,-2,2,-6,546,3
7,4,7,-9,-2,2,-4,375,3
7,4,8,-9,-2,2,5,327,3
7,4,9,-9,-2,2,-17,518,3
7,4,10,-9,-2,2,-4,527,3
7,5,1,2,-6,1,1,1729,1
7,5,2,2,-6,2,-6,343,1
7,5,3,2,-6,2,-6,359,1
7,5,4,2,-6,2,-6,335,1
7,5,5,2,-6,1,3,344,1
7,5,6,2,-6,1,13,327,1
7,5,7,2,-6,1,4,328,1
7,5,8,2,-6,1,0,542,1
7,5,9,2,-6,1,6,329,1
7,5,10,2,-6,1,1,319,1
7,6,1,-12,-5,1,-12,709,4
7,6,2,-12,-5,2,-5,439,4
7,6,3,-12,-5,2,-5,399,4
7,6,4,-12,-5,2,-5,344,4
7,6,5,-12,-5,2,-5,320,4
7,6,6,-12,-5,2,-5,336,4
7,6,7,-12,-5,2,-5,336,4
7,6,8,-12,-5,2,-5,329,4
7,6,9,-12,-5,2,-5,5863,4
7,6,10,-12,-5,2,-5,325,4
7,7,1,2,-2,1,2,856,2
7,7,2,2,-2,1,2,360,2
7,7,3,2,-2,1,2,486,2
7,7,4,2,-2,1,2,336,2
7,7,5,2,-2,1,2,297,2
7,7,6,2,-2,1,2,294,2
7,7,7,2,-2,1,2,336,2
7,7,8,2,-2,1,2,376,2
7,7,9,2,-2,1,2,318,2
7,7,10,2,-2,1,2,390,2
7,8,1,14,2,1,14,831,4
7,8,2,14,2,2,2,815,4
7,8,3,14,2,1,14,592,4
7,8,4,14,2,1,14,370,4
7,8,5,14,2,1,14,332,4
7,8,6,14,2,1,14,359,4
7,8,7,14,2,1,14,329,4
7,8,8,14,2,1,14,410,4
7,8,9,14,2,1,14,319,4
7,8,10,14,2,1,14,343,4
7,9,1,-7,-9,1,-5,855,3
7,9,2,-7,-9,2,6,336,3
7,9,3,-7,-9,2,5,359,3
7,9,4,-7,-9,2,2,288,3
7,9,5,-7,-9,2,-1,352,3
7,9,6,-7,-9,2,-15,391,3
7,9,7,-7,-9,1,-5,481,3
7,9,8,-7,-9,2,-21,441,3
7,9,9,-7,-9,1,-10,384,3
7,9,10,-7,-9,1,-6,382,3
7,10,1,3,4,1,3,831,2
7,10,2,3,4,1,3,374,2
7,10,3,3,4,1,3,352,2
7,10,4,3,4,1,3,334,2
7,10,5,3,4,1,3,943,2
7,10,6,3,4,1,3,359,2
7,10,7,3,4,1,3,335,2
7,10,8,3,4,1,3,360,2
7,10,9,3,4,1,3,406,2
7,10,10,3,4,1,3,510,2
7,11,1,6,-8,1,6,672,2
7,11,2,6,-8,1,6,291,2
7,11,3,6,-8,1,6,310,2
7,11,4,6,-8,1,6,983,2
7,11,5,6,-8,1,6,289,2
7,11,6,6,-8,1,6,487,2
7,11,7,6,-8,1,6,310,2
7,11,8,6,-8,1,6,311,2
7,11,9,6,-8,1,6,351,2
7,11,10,6,-8,1,6,520,2
7,12,1,7,0,2,0,636,1
7,12,2,7,0,2,0,317,1
7,12,3,7,0,2,0,323,1
7,12,4,7,0,1,26,407,1
7,12,5,7,0,2,0,447,1
7,12,6,7,0,1,15,320,1
7,12,7,7,0,1,20,359,1
7,12,8,7,0,1,-4,521,1
7,12,9,7,0,1,-1,374,1
7,12,10,7,0,1,-5,360,1
7,13,1,-3,-3,1,-3,696,2
7,13,2,-3,-3,2,3,1079,2
7,13,3,-3,-3,2,-11,2984,2
7,13,4,-3,-3,1,-3,335,2
7,13,5,-3,-3,2,3,303,2
7,13,6,-3,-3,2,-6,312,2
7,13,7,-3,-3,2,5,334,2
7,13,8,-3,-3,2,-6,297,2
7,13,9,-3,-3,2,-4,343,2
7,13,10,-3,-3,2,8,320,2
7,14,1,3,-3,2,-3,1032,1
7,14,2,3,-3,1,-3,366,1
7,14,3,3,-3,2,-3,462,1
7,14,4,3,-3,1,8,13721,1
7,14,5,3,-3,1,-2,319,1
7,14,6,3,-3,1,17,306,1
7,14,7,3,-3,1,-7,335,1
7,14,8,3,-3,1,5,303,1
7,14,9,3,-3,1,-4,303,1
7,14,10,3,-3,1,7,854,1
7,15,1,12,2,1,14,784,3
7,15,2,12,2,2,-2,510,3
7,15,3,12,2,1,21,327,3
7,15,4,12,2,1,17,335,3
7,15,5,12,2,1,9,311,3
7,15,6,12,2,1,12,313,3
7,15,7,12,2,1,3,384,3
7,15,8,12,2,1,14,328,3
7,15,9,12,2,1,4,319,3
7,15,10,12,2,1,22,369,3
7,16,1,-2,3,1,-2,811,4
7,16,2,-2,3,2,3,318,4
7,16,3,-2,3,2,3,814,4
7,16,4,-2,3,2,3,449,4
7,16,5,-2,3,2,3,1351,4
7,16,6,-2,3,2,3,318,4
7,16,7,-2,3,2,3,446,4
7,16,8,-2,3,2,3,359,4
7,16,9,-2,3,2,3,383,4
7,16,10,-2,3,2,3,392,4
7,17,1,-19,-2,1,-19,760,2
7,17,2,-19,-2,1,-19,358,2
7,17,3,-19,-2,2,-16,328,2
7,17,4,-19,-2,2,-8,312,2
7,17,5,-19,-2,2,0,321,2
7,17,6,-19,-2,2,-8,361,2
7,17,7,-19,-2,2,-5,353,2
7,17,8,-19,-2,2,-5,25297,2
7,17,9,-19,-2,2,0,319,2
7,17,10,-19,-2,2,3,306,2
7,18,1,8,18,1,8,1008,2
7,18,2,8,18,1,8,383,2
7,18,3,8,18,1,8,384,2
7,18,4,8,18,1,8,335,2
7,18,5,8,18,1,8,343,2
7,18,6,8,18,1,8,354,2
7,18,7,8,18,1,8,351,2
7,18,8,8,18,1,8,320,2
7,18,9,8,18,1,8,308,2
7,18,10,8,18,1,8,299,2
7,19,1,-12,13,1,-12,616,2
7,19,2,-12,13,2,8,407,2
7,19,3,-12,13,2,7,320,2
7,19,4,-12,13,2,11,359,2
7,19,5,-12,13,2,20,329,2
7,19,6,-12,13,2,1,320,2
7,19,7,-12,13,2,14,352,2
7,19,8,-12,13,2,12,312,2
7,19,9,-12,13,2,2,350,2
7,19,10,-12,13,2,24,376,2
7,20,1,10,6,1,10,496,2
7,20,2,10,6,1,10,336,2
7,20,3,10,6,1,10,327,2
7,20,4,10,6,1,10,319,2
7,20,5,10,6,1,10,359,2
7,20,6,10,6,1,10,361,2
7,20,7,10,6,1,10,336,2
7,20,8,10,6,1,10,312,2
7,20,9,10,6,1,10,360,2
7,20,10,10,6,1,10,360,2
7,21,1,-11,9,1,-11,680,4
7,21,2,-11,9,2,9,329,4
7,21,3,-11,9,2,9,318,4
7,21,4,-11,9,2,9,327,4
7,21,5,-11,9,2,9,390,4
7,21,6,-11,9,2,9,351,4
7,21,7,-11,9,2,9,328,4
7,21,8,-11,9,2,9,288,4
7,21,9,-11,9,2,9,278,4
7,21,10,-11,9,2,9,447,4
7,22,1,-14,-5,2,-5,1033,3
7,22,2,-14,-5,1,-8,369,3
7,22,3,-14,-5,2,-9,368,3
7,22,4,-14,-5,2,-22,343,3
7,22,5,-14,-5,1,-9,391,3
7,22,6,-14,-5,1,-14,304,3
7,22,7,-14,-5,1,-16,360,3
7,22,8,-14,-5,2,-1,350,3
7,22,9,-14,-5,2,-14,309,3
7,22,10,-14,-5,2,-12,320,3
7,23,1,-7,-8,2,-8,592,4
7,23,2,-7,-8,1,-7,311,4
7,23,3,-7,-8,1,-7,341,4
7,23,4,-7,-8,1,-7,312,4
7,23,5,-7,-8,1,-7,319,4
7,23,6,-7,-8,1,-7,328,4
7,23,7,-7,-8,1,-7,320,4
7,23,8,-7,-8,1,-7,327,4
7,23,9,-7,-8,1,-7,303,4
7,23,10,-7,-8,1,-7,312,4
7,24,1,7,5,2,5,616,1
7,24,2,7,5,2,5,368,1
7,24,3,7,5,2,5,304,1
7,24,4,7,5,2,5,327,1
7,24,5,7,5,2,5,318,1
7,24,6,7,5,2,5,336,1
7,24,7,7,5,2,5,319,1
7,24,8,7,5,2,5,351,1
7,24,9,7,5,2,5,319,1
7,24,10,7,5,2,5,359,1
7,25,1,-2,-1,1,-5,696,3
7,25,2,-2,-1,2,-2,384,3
7,25,3,-2,-1,2,-2,367,3
7,25,4,-2,-1,2,-4,312,3
7,25,5,-2,-1,2,-1,693,3
7,25,6,-2,-1,2,2,337,3
7,25,7,-2,-1,2,18,399,3
7,25,8,-2,-1,2,8,360,3
7,25,9,-2,-1,2,7,319,3
7,25,10,-2,-1,2,8,367,3
7,26,1,-3,1,2,1,1033,4
7,26,2,-3,1,1,-3,352,4
7,26,3,-3,1,2,1,359,4
7,26,4,-3,1,2,1,303,4
7,26,5,-3,1,2,1,287,4
7,26,6,-3,1,2,1,335,4
7,26,7,-3,1,2,1,326,4
7,26,8,-3,1,2,1,345,4
7,26,9,-3,1,2,1,311,4
7,26,10,-3,1,2,1,336,4
7,27,1,2,-1,2,-1,586,1
7,27,2,2,-1,1,4,421,1
7,27,3,2,-1,1,14,304,1
7,27,4,2,-1,1,10,366,1
7,27,5,2,-1,1,5,336,1
7,27,6,2,-1,1,3,343,1
7,27,7,2,-1,1,5,350,1
7,27,8,2,-1,1,0,368,1
7,27,9,2,-1,1,0,336,1
7,27,10,2,-1,1,10,352,1
7,28,1,15,-11,2,-11,1009,1
7,28,2,15,-11,1,6,360,1
7,28,3,15,-11,1,1,309,1
7,28,4,15,-11,1,10,408,1
7,28,5,15,-11,1,17,311,1
7,28,6,15,-11,1,13,303,1
7,28,7,15,-11,1,16,368,1
7,28,8,15,-11,1,20,335,1
7,28,9,15,-11,1,13,361,1
7,28,10,15,-11,1,3,319,1
7,29,1,0,-5,1,-8,568,3
7,29,2,0,-5,2,-8,328,3
7,29,3,0,-5,1,6,791,3
7,29,4,0,-5,1,-3,503,3
7,29,5,0,-5,1,3,343,3
7,29,6,0,-5,1,4,320,3
7,29,7,0,-5,1,13,373,3
7,29,8,0,-5,1,8,471,3
7,29,9,0,-5,1,9,7160,3
7,29,10,0,-5,1,-1,314,3
7,30,1,-3,0,1,0,713,3
7,30,2,-3,0,2,8,597,3
7,30,3,-3,0,2,8,422,3
7,30,4,-3,0,2,-10,313,3
7,30,5,-3,0,2,7,398,3
7,30,6,-3,0,2,4,313,3
7,30,7,-3,0,2,-8,290,3
7,30,8,-3,0,2,3,287,3
7,30,9,-3,0,2,-1,326,3
7,30,10,-3,0,2,-3,327,3
8,1,1,5,-2,1,3,6599,1
8,1,2,5,-2,1,9,720,1
8,1,3,5,-2,2,-2,845,1
8,1,4,5,-2,1,1,390,1
8,1,5,5,-2,2,-2,374,1
8,1,6,5,-2,1,-4,366,1
8,1,7,5,-2,2,-2,446,1
8,1,8,5,-2,2,-2,379,1
8,1,9,5,-2,1,8,494,1
8,1,10,5,-2,1,5,470,1
8,2,1,1,2,2,2,568,1
8,2,2,1,2,2,2,423,1
8,2,3,1,2,1,9,393,1
8,2,4,1,2,1,-2,342,1
8,2,5,1,2,2,2,894,1
8,2,6,1,2,2,2,390,1
8,2,7,1,2,1,-9,510,1
8,2,8,1,2,2,2,382,1
8,2,9,1,2,2,2,390,1
8,2,10,1,2,2,2,361,1
8,3,1,-3,-9,1,-3,880,4
8,3,2,-3,-9,2,-9,447,4
8,3,3,-3,-9,2,-9,359,4
8,3,4,-3,-9,1,-3,590,4
8,3,5,-3,-9,1,-3,449,4
8,3,6,-3,-9,1,-3,478,4
8,3,7,-3,-9,2,-9,406,4
8,3,8,-3,-9,2,-9,398,4
8,3,9,-3,-9,1,-3,382,4
8,3,10,-3,-9,1,-3,366,4
8,4,1,-9,-1,2,-1,1000,4
8,4,2,-9,-1,1,-9,446,4
8,4,3,-9,-1,1,-9,358,4
8,4,4,-9,-1,1,-9,342,4
8,4,5,-9,-1,2,-1,719,4
8,4,6,-9,-1,2,-1,383,4
8,4,7,-9,-1,1,-9,374,4
8,4,8,-9,-1,1,-9,375,4
8,4,9,-9,-1,1,-9,367,4
8,4,10,-9,-1,1,-9,394,4
8,5,1,-4,21,2,21,865,1
8,5,2,-4,21,2,21,441,1
8,5,3,-4,21,2,21,446,1
8,5,4,-4,21,1,-2,487,1
8,5,5,-4,21,2,21,614,1
8,5,6,-4,21,2,21,446,1
8,5,7,-4,21,1,5,481,1
8,5,8,-4,21,1,-6,374,1
8,5,9,-4,21,1,2,342,1
8,5,10,-4,21,2,21,369,1
8,6,1,13,-4,2,-4,537,1
8,6,2,13,-4,2,-4,455,1
8,6,3,13,-4,1,13,335,1
8,6,4,13,-4,1,22,421,1
8,6,5,13,-4,1,13,470,1
8,6,6,13,-4,2,-4,3358,1
8,6,7,13,-4,1,15,622,1
8,6,8,13,-4,1,15,366,1
8,6,9,13,-4,1,13,494,1
8,6,10,13,-4,2,-4,429,1
8,7,1,-5,4,2,8,441,2
8,7,2,-5,4,2,18,350,2
8,7,3,-5,4,1,-5,502,2
8,7,4,-5,4,2,6,511,2
8,7,5,-5,4,2,5,399,2
8,7,6,-5,4,2,10,367,2
8,7,7,-5,4,2,-5,4766,2
8,7,8,-5,4,1,-5,7910,2
8,7,9,-5,4,2,9,1494,2
8,7,10,-5,4,2,6,670,2
8,8,1,13,-10,2,-3,592,2
8,8,2,13,-10,2,-5,343,2
8,8,3,13,-10,1,13,434,2
8,8,4,13,-10,1,13,349,2
8,8,5,13,-10,1,13,814,2
8,8,6,13,-10,2,-11,439,2
8,8,7,13,-10,2,-3,374,2
8,8,8,13,-10,2,-17,401,2
8,8,9,13,-10,2,2,470,2
8,8,10,13,-10,1,13,662,2
8,9,1,-2,4,2,-5,552,2
8,9,2,-2,4,2,15,366,2
8,9,3,-2,4,2,0,463,2
8,9,4,-2,4,1,-2,422,2
8,9,5,-2,4,1,-2,357,2
8,9,6,-2,4,1,-2,406,2
8,9,7,-2,4,2,4,792,2
8,9,8,-2,4,2,3,399,2
8,9,9,-2,4,2,-4,407,2
8,9,10,-2,4,2,7,422,2
8,10,1,3,-16,1,-1,528,3
8,10,2,3,-16,1,-4,343,3
8,10,3,3,-16,2,-7,390,3
8,10,4,3,-16,2,-16,375,3
8,10,5,3,-16,1,3,390,3
8,10,6,3,-16,1,1,350,3
8,10,7,3,-16,1,7,390,3
8,10,8,3,-16,2,-12,399,3
8,10,9,3,-16,1,1,398,3
8,10,10,3,-16,2,-12,364,3
8,11,1,-8,-11,1,-8,809,4
8,11,2,-8,-11,2,-11,462,4
8,11,3,-8,-11,2,-11,358,4
8,11,4,-8,-11,2,-11,22481,4
8,11,5,-8,-11,1,-8,527,4
8,11,6,-8,-11,1,-8,335,4
8,11,7,-8,-11,1,-8,375,4
8,11,8,-8,-11,1,-8,447,4
8,11,9,-8,-11,2,-11,439,4
8,11,10,-8,-11,1,-8,359,4
8,12,1,-19,0,2,0,1033,4
8,12,2,-19,0,1,-19,614,4
8,12,3,-19,0,1,-19,470,4
8,12,4,-19,0,2,0,1246,4
8,12,5,-19,0,2,0,342,4
8,12,6,-19,0,2,0,350,4
8,12,7,-19,0,1,-19,398,4
8,12,8,-19,0,1,-19,326,4
8,12,9,-19,0,2,0,371,4
8,12,10,-19,0,2,0,368,4
8,13,1,8,-4,2,-6,609,2
8,13,2,8,-4,2,0,367,2
8,13,3,8,-4,1,8,1207,2
8,13,4,8,-4,1,8,335,2
8,13,5,8,-4,1,8,311,2
8,13,6,8,-4,2,-5,391,2
8,13,7,8,-4,1,8,415,2
8,13,8,8,-4,2,-5,406,2
8,13,9,8,-4,2,-10,17997,2
8,13,10,8,-4,1,8,710,2
8,14,1,4,2,2,2,528,1
8,14,2,4,2,2,2,367,1
8,14,3,4,2,2,2,351,1
8,14,4,4,2,1,-8,327,1
8,14,5,4,2,1,9,327,1
8,14,6,4,2,1,-3,343,1
8,14,7,4,2,1,-3,351,1
8,14,8,4,2,1,8,343,1
8,14,9,4,2,1,5,319,1
8,14,10,4,2,2,2,406,1
8,15,1,6,1,2,1,760,4
8,15,2,6,1,2,1,365,4
8,15,3,6,1,1,6,380,4
8,15,4,6,1,1,6,309,4
8,15,5,6,1,2,1,686,4
8,15,6,6,1,1,6,366,4
8,15,7,6,1,2,1,542,4
8,15,8,6,1,1,6,368,4
8,15,9,6,1,2,1,384,4
8,15,10,6,1,1,6,350,4
8,16,1,-1,-8,2,-8,577,1
8,16,2,-1,-8,1,0,614,1
8,16,3,-1,-8,1,-7,805,1
8,16,4,-1,-8,2,-8,342,1
8,16,5,-1,-8,2,-8,359,1
8,16,6,-1,-8,1,-2,382,1
8,16,7,-1,-8,1,0,358,1
8,16,8,-1,-8,2,-8,375,1
8,16,9,-1,-8,1,1,519,1
8,16,10,-1,-8,2,-8,19452,1
8,17,1,-1,-3,1,-1,593,2
8,17,2,-1,-3,1,-1,471,2
8,17,3,-1,-3,2,4,327,2
8,17,4,-1,-3,2,-8,303,2
8,17,5,-1,-3,2,-2,527,2
8,17,6,-1,-3,1,-1,471,2
8,17,7,-1,-3,1,-1,344,2
8,17,8,-1,-3,1,-1,359,2
8,17,9,-1,-3,1,-1,326,2
8,17,10,-1,-3,1,-1,318,2
8,18,1,5,-5,2,0,440,2
8,18,2,5,-5,2,-5,359,2
8,18,3,5,-5,2,-6,398,2
8,18,4,5,-5,1,5,582,2
8,18,5,5,-5,1,5,326,2
8,18,6,5,-5,2,0,350,2
8,18,7,5,-5,1,5,366,2
8,18,8,5,-5,1,5,342,2
8,18,9,5,-5,2,-9,358,2
8,18,10,5,-5,1,5,415,2
8,19,1,-4,10,2,6,822,2
8,19,2,-4,10,2,8,351,2
8,19,3,-4,10,1,-4,391,2
8,19,4,-4,10,1,-4,375,2
8,19,5,-4,10,1,-4,398,2
8,19,6,-4,10,1,-4,661,2
8,19,7,-4,10,2,8,406,2
8,19,8,-4,10,2,-9,422,2
8,19,9,-4,10,1,-4,615,2
8,19,10,-4,10,2,19,414,2
8,20,1,4,6,2,9,504,2
8,20,2,4,6,2,12,590,2
8,20,3,4,6,2,7,7073,2
8,20,4,4,6,1,4,327,2
8,20,5,4,6,1,4,325,2
8,20,6,4,6,1,4,470,2
8,20,7,4,6,2,6,406,2
8,20,8,4,6,2,15,392,2
8,20,9,4,6,1,4,390,2
8,20,10,4,6,1,4,375,2
8,21,1,6,-8,1,10,986,3
8,21,2,6,-8,1,3,339,3
8,21,3,6,-8,1,7,342,3
8,21,4,6,-8,2,-4,335,3
8,21,5,6,-8,2,-3,327,3
8,21,6,6,-8,1,8,391,3
8,21,7,6,-8,2,-4,535,3
8,21,8,6,-8,1,6,397,3
8,21,9,6,-8,1,15,335,3
8,21,10,6,-8,1,6,799,3
8,22,1,-1,-3,1,7,633,1
8,22,2,-1,-3,1,7,292,1
8,22,3,-1,-3,2,-3,310,1
8,22,4,-1,-3,2,-3,455,1
8,22,5,-1,-3,1,8,600,1
8,22,6,-1,-3,1,-2,466,1
8,22,7,-1,-3,2,-3,526,1
8,22,8,-1,-3,2,-3,357,1
8,22,9,-1,-3,2,-3,377,1
8,22,10,-1,-3,1,1,390,1
8,23,1,3,-8,2,-11,545,2
8,23,2,3,-8,2,4,359,2
8,23,3,3,-8,2,-5,363,2
8,23,4,3,-8,1,3,383,2
8,23,5,3,-8,1,3,295,2
8,23,6,3,-8,1,3,374,2
8,23,7,3,-8,2,-16,392,2
8,23,8,3,-8,2,-12,361,2
8,23,9,3,-8,2,-6,423,2
8,23,10,3,-8,1,3,407,2
8,24,1,-2,-5,2,-5,633,1
8,24,2,-2,-5,2,-5,317,1
8,24,3,-2,-5,2,-5,326,1
8,24,4,-2,-5,1,-10,350,1
8,24,5,-2,-5,1,4,350,1
8,24,6,-2,-5,1,-1,327,1
8,24,7,-2,-5,1,8,318,1
8,24,8,-2,-5,2,-5,630,1
8,24,9,-2,-5,1,-5,478,1
8,24,10,-2,-5,2,-5,402,1
8,25,1,10,1,2,4,976,2
8,25,2,10,1,2,-1,326,2
8,25,3,10,1,1,10,574,2
8,25,4,10,1,1,10,332,2
8,25,5,10,1,1,10,335,2
8,25,6,10,1,2,14,384,2
8,25,7,10,1,2,6,351,2
8,25,8,10,1,1,10,359,2
8,25,9,10,1,1,10,455,2
8,25,10,10,1,2,-5,351,2
8,26,1,0,8,2,-1,656,2
8,26,2,0,8,2,21,351,2
8,26,3,0,8,2,-1,350,2
8,26,4,0,8,1,0,422,2
8,26,5,0,8,1,0,359,2
8,26,6,0,8,1,0,339,2
8,26,7,0,8,2,5,367,2
8,26,8,0,8,1,0,375,2
8,26,9,0,8,2,9,366,2
8,26,10,0,8,1,0,383,2
8,27,1,-9,17,2,17,704,4
8,27,2,-9,17,2,17,383,4
8,27,3,-9,17,1,-9,717,4
8,27,4,-9,17,1,-9,477,4
8,27,5,-9,17,2,17,367,4
8,27,6,-9,17,2,17,351,4
8,27,7,-9,17,1,-9,398,4
8,27,8,-9,17,1,-9,317,4
8,27,9,-9,17,1,-9,367,4
8,27,10,-9,17,1,-9,358,4
8,28,1,-2,-12,1,-2,616,2
8,28,2,-2,-12,1,-2,365,2
8,28,3,-2,-12,2,-9,391,2
8,28,4,-2,-12,2,-15,327,2
8,28,5,-2,-12,2,-12,350,2
8,28,6,-2,-12,1,-2,414,2
8,28,7,-2,-12,1,-2,318,2
8,28,8,-2,-12,2,-18,343,2
8,28,9,-2,-12,1,-2,782,2
8,28,10,-2,-12,1,-2,327,2
8,29,1,-16,-8,1,-16,696,2
8,29,2,-16,-8,1,-16,375,2
8,29,3,-16,-8,2,-14,358,2
8,29,4,-16,-8,2,-4,374,2
8,29,5,-16,-8,1,-16,454,2
8,29,6,-16,-8,2,-12,347,2
8,29,7,-16,-8,2,-14,319,2
8,29,8,-16,-8,2,-13,407,2
8,29,9,-16,-8,2,-8,429,2
8,29,10,-16,-8,1,-16,439,2
8,30,1,6,2,2,6,802,2
8,30,2,6,2,2,-5,16334,2
8,30,3,6,2,2,7,359,2
8,30,4,6,2,2,3,321,2
8,30,5,6,2,1,6,543,2
8,30,6,6,2,1,6,319,2
8,30,7,6,2,1,6,381,2
8,30,8,6,2,2,1,10049,2
8,30,9,6,2,2,2,363,2
8,30,10,6,2,1,6,406,2
9,1,1,-5,4,1,-5,866,4
9,1,2,-5,4,1,-5,404,4
9,1,3,-5,4,2,4,257,4
9,1,4,-5,4,2,4,361,4
9,1,5,-5,4,2,4,228,4
9,1,6,-5,4,2,4,216,4
9,1,7,-5,4,2,4,222,4
9,1,8,-5,4,2,4,204,4
9,1,9,-5,4,2,4,234,4
9,1,10,-5,4,2,4,228,4
9,2,1,1,-10,1,-2,770,1
9,2,2,1,-10,2,-10,457,1
9,2,3,1,-10,1,2,681,1
9,2,4,1,-10,1,1,239,1
9,2,5,1,-10,1,-3,232,1
9,2,6,1,-10,1,5,301,1
9,2,7,1,-10,1,-1,240,1
9,2,8,1,-10,1,9,252,1
9,2,9,1,-10,1,-2,271,1
9,2,10,1,-10,1,0,253,1
9,3,1,6,9,1,6,1068,2
9,3,2,6,9,1,6,258,2
9,3,3,6,9,1,6,236,2
9,3,4,6,9,1,6,236,2
9,3,5,6,9,1,6,381,2
9,3,6,6,9,1,6,386,2
9,3,7,6,9,1,6,256,2
9,3,8,6,9,1,6,227,2
9,3,9,6,9,1,6,275,2
9,3,10,6,9,1,6,304,2
9,4,1,6,2,1,6,1079,4
9,4,2,6,2,2,2,274,4
9,4,3,6,2,1,6,244,4
9,4,4,6,2,1,6,234,4
9,4,5,6,2,1,6,236,4
9,4,6,6,2,1,6,251,4
9,4,7,6,2,1,6,336,4
9,4,8,6,2,1,6,243,4
9,4,9,6,2,1,6,298,4
9,4,10,6,2,1,6,273,4
9,5,1,-3,-4,1,-3,652,4
9,5,2,-3,-4,2,-4,232,4
9,5,3,-3,-4,1,-3,291,4
9,5,4,-3,-4,2,-4,282,4
9,5,5,-3,-4,1,-3,253,4
9,5,6,-3,-4,1,-3,222,4
9,5,7,-3,-4,1,-3,215,4
9,5,8,-3,-4,1,-3,222,4
9,5,9,-3,-4,1,-3,259,4
9,5,10,-3,-4,1,-3,249,4
9,6,1,-8,0,1,-8,642,2
9,6,2,-8,0,2,-6,228,2
9,6,3,-8,0,2,9,209,2
9,6,4,-8,0,2,3,227,2
9,6,5,-8,0,2,1,227,2
9,6,6,-8,0,2,-2,295,2
9,6,7,-8,0,2,5,586,2
9,6,8,-8,0,2,-4,267,2
9,6,9,-8,0,2,-4,298,2
9,6,10,-8,0,2,1,253,2
9,7,1,-3,5,1,9,501,3
9,7,2,-3,5,2,6,266,3
9,7,3,-3,5,1,-6,295,3
9,7,4,-3,5,2,7,431,3
9,7,5,-3,5,2,13,265,3
9,7,6,-3,5,2,-4,237,3
9,7,7,-3,5,2,10,232,3
9,7,8,-3,5,2,6,237,3
9,7,9,-3,5,2,11,252,3
9,7,10,-3,5,2,3,248,3
9,8,1,-7,12,1,-7,452,2
9,8,2,-7,12,2,16,255,2
9,8,3,-7,12,2,-1,216,2
9,8,4,-7,12,2,21,247,2
9,8,5,-7,12,2,5,311,2
9,8,6,-7,12,2,7,222,2
9,8,7,-7,12,2,10,225,2
9,8,8,-7,12,2,5,233,2
9,8,9,-7,12,2,17,202,2
9,8,10,-7,12,2,6,270,2
9,9,1,-2,0,2,2,519,2
9,9,2,-2,0,1,-2,278,2
9,9,3,-2,0,2,-3,211,2
9,9,4,-2,0,2,6,221,2
9,9,5,-2,0,2,-1,243,2
9,9,6,-2,0,2,-2,263,2
9,9,7,-2,0,2,5,317,2
9,9,8,-2,0,2,-3,238,2
9,9,9,-2,0,2,1,298,2
9,9,10,-2,0,2,3,381,2
9,10,1,6,-3,1,7,675,3
9,10,2,6,-3,2,-3,287,3
9,10,3,6,-3,1,13,232,3
9,10,4,6,-3,1,13,913,3
9,10,5,6,-3,1,6,267,3
9,10,6,6,-3,1,5,254,3
9,10,7,6,-3,1,16,428,3
9,10,8,6,-3,1,-3,336,3
9,10,9,6,-3,1,1,897,3
9,10,10,6,-3,1,12,274,3
9,11,1,-5,-7,1,-2,440,3
9,11,2,-5,-7,2,3,322,3
9,11,3,-5,-7,2,-5,339,3
9,11,4,-5,-7,2,-16,291,3
9,11,5,-5,-7,2,-11,269,3
9,11,6,-5,-7,2,-10,253,3
9,11,7,-5,-7,1,-13,317,3
9,11,8,-5,-7,1,-8,288,3
9,11,9,-5,-7,1,-6,283,3
9,11,10,-5,-7,1,-6,270,3
9,12,1,-5,1,1,0,429,3
9,12,2,-5,1,2,-8,292,3
9,12,3,-5,1,1,-5,290,3
9,12,4,-5,1,1,-5,293,3
9,12,5,-5,1,2,0,287,3
9,12,6,-5,1,2,-3,226,3
9,12,7,-5,1,2,-4,242,3
9,12,8,-5,1,2,-6,267,3
9,12,9,-5,1,2,-10,329,3
9,12,10,-5,1,2,7,243,3
9,13,1,7,4,1,7,448,4
9,13,2,7,4,2,4,254,4
9,13,3,7,4,1,7,240,4
9,13,4,7,4,1,7,249,4
9,13,5,7,4,1,7,239,4
9,13,6,7,4,1,7,286,4
9,13,7,7,4,1,7,302,4
9,13,8,7,4,1,7,315,4
9,13,9,7,4,1,7,296,4
9,13,10,7,4,1,7,288,4
9,14,1,-8,1,1,-8,410,2
9,14,2,-8,1,2,-4,240,2
9,14,3,-8,1,2,-2,216,2
9,14,4,-8,1,2,9,251,2
9,14,5,-8,1,2,6,384,2
9,14,6,-8,1,2,-7,264,2
9,14,7,-8,1,2,-1,274,2
9,14,8,-8,1,2,-1,313,2
9,14,9,-8,1,2,0,261,2
9,14,10,-8,1,2,15,270,2
9,15,1,4,-26,2,-26,1292,1
9,15,2,4,-26,1,3,275,1
9,15,3,4,-26,1,3,271,1
9,15,4,4,-26,1,1,205,1
9,15,5,4,-26,1,6,230,1
9,15,6,4,-26,1,3,250,1
9,15,7,4,-26,1,2,268,1
9,15,8,4,-26,1,9,269,1
9,15,9,4,-26,1,10,254,1
9,15,10,4,-26,1,-2,256,1
9,16,1,4,-9,2,-14,459,2
9,16,2,4,-9,1,4,258,2
9,16,3,4,-9,1,4,246,2
9,16,4,4,-9,1,4,210,2
9,16,5,4,-9,1,4,230,2
9,16,6,4,-9,1,4,259,2
9,16,7,4,-9,1,4,216,2
9,16,8,4,-9,1,4,236,2
9,16,9,4,-9,1,4,243,2
9,16,10,4,-9,1,4,342,2
9,17,1,0,1,1,-4,371,1
9,17,2,0,1,2,1,320,1
9,17,3,0,1,2,1,214,1
9,17,4,0,1,2,1,239,1
9,17,5,0,1,2,1,269,1
9,17,6,0,1,2,1,284,1
9,17,7,0,1,2,1,290,1
9,17,8,0,1,2,1,447,1
9,17,9,0,1,2,1,1857,1
9,17,10,0,1,2,1,230,1
9,18,1,-5,6,2,6,373,4
9,18,2,-5,6,1,-5,253,4
9,18,3,-5,6,2,6,233,4
9,18,4,-5,6,2,6,253,4
9,18,5,-5,6,2,6,267,4
9,18,6,-5,6,2,6,265,4
9,18,7,-5,6,2,6,286,4
9,18,8,-5,6,2,6,260,4
9,18,9,-5,6,2,6,290,4
9,18,10,-5,6,2,6,961,4
9,19,1,5,-11,2,-15,560,3
9,19,2,5,-11,1,7,277,3
9,19,3,5,-11,1,19,225,3
9,19,4,5,-11,1,-5,322,3
9,19,5,5,-11,1,4,269,3
9,19,6,5,-11,1,8,255,3
9,19,7,5,-11,1,19,274,3
9,19,8,5,-11,1,19,255,3
9,19,9,5,-11,1,0,281,3
9,19,10,5,-11,1,-17,302,3
9,20,1,-3,12,1,-9,452,1
9,20,2,-3,12,2,12,273,1
9,20,3,-3,12,2,12,230,1
9,20,4,-3,12,2,12,266,1
9,20,5,-3,12,2,12,226,1
9,20,6,-3,12,2,12,225,1
9,20,7,-3,12,2,12,259,1
9,20,8,-3,12,2,12,261,1
9,20,9,-3,12,2,12,230,1
9,20,10,-3,12,2,12,244,1
9,21,1,8,1,1,8,572,1
9,21,2,8,1,1,-1,289,1
9,21,3,8,1,1,6,201,1
9,21,4,8,1,2,1,268,1
9,21,5,8,1,1,9,250,1
9,21,6,8,1,1,7,252,1
9,21,7,8,1,1,11,271,1
9,21,8,8,1,1,13,218,1
9,21,9,8,1,1,9,870,1
9,21,10,8,1,1,10,262,1
9,22,1,-2,0,1,-3,468,3
9,22,2,-2,0,2,-1,245,3
9,22,3,-2,0,2,-5,238,3
9,22,4,-2,0,2,0,235,3
9,22,5,-2,0,2,1,240,3
9,22,6,-2,0,2,1,238,3
9,22,7,-2,0,2,-4,230,3
9,22,8,-2,0,2,-3,260,3
9,22,9,-2,0,2,-1,271,3
9,22,10,-2,0,2,0,272,3
9,23,1,19,-5,2,-2,326,3
9,23,2,19,-5,1,22,248,3
9,23,3,19,-5,1,26,238,3
9,23,4,19,-5,1,25,225,3
9,23,5,19,-5,1,14,243,3
9,23,6,19,-5,1,22,788,3
9,23,7,19,-5,1,21,250,3
9,23,8,19,-5,1,24,360,3
9,23,9,19,-5,1,8,342,3
9,23,10,19,-5,1,22,230,3
9,24,1,5,4,1,1,290,3
9,24,2,5,4,2,1,212,3
9,24,3,5,4,2,-2,231,3
9,24,4,5,4,1,13,246,3
9,24,5,5,4,1,-2,840,3
9,24,6,5,4,1,4,267,3
9,24,7,5,4,1,4,453,3
9,24,8,5,4,1,7,322,3
9,24,9,5,4,1,3,247,3
9,24,10,5,4,1,6,288,3
9,25,1,-14,-13,1,-9,315,3
9,25,2,-14,-13,2,-9,252,3
9,25,3,-14,-13,2,-14,261,3
9,25,4,-14,-13,1,-18,276,3
9,25,5,-14,-13,2,-14,304,3
9,25,6,-14,-13,2,-14,239,3
9,25,7,-14,-13,2,-16,235,3
9,25,8,-14,-13,2,-22,268,3
9,25,9,-14,-13,2,-12,336,3
9,25,10,-14,-13,1,-2,587,3
9,26,1,-11,6,1,-11,457,4
9,26,2,-11,6,2,6,243,4
9,26,3,-11,6,2,6,286,4
9,26,4,-11,6,2,6,255,4
9,26,5,-11,6,2,6,255,4
9,26,6,-11,6,2,6,246,4
9,26,7,-11,6,2,6,203,4
9,26,8,-11,6,2,6,241,4
9,26,9,-11,6,2,6,304,4
9,26,10,-11,6,2,6,253,4
9,27,1,2,-5,2,-5,271,1
9,27,2,2,-5,1,4,282,1
9,27,3,2,-5,1,0,236,1
9,27,4,2,-5,1,6,222,1
9,27,5,2,-5,1,-5,232,1
9,27,6,2,-5,1,5,298,1
9,27,7,2,-5,1,3,300,1
9,27,8,2,-5,1,-1,271,1
9,27,9,2,-5,1,-2,291,1
9,27,10,2,-5,1,4,284,1
9,28,1,-7,-3,2,-3,425,2
9,28,2,-7,-3,1,-7,338,2
9,28,3,-7,-3,2,5,232,2
9,28,4,-7,-3,2,-10,244,2
9,28,5,-7,-3,2,-3,251,2
9,28,6,-7,-3,2,0,246,2
9,28,7,-7,-3,2,9,257,2
9,28,8,-7,-3,2,2,252,2
9,28,9,-7,-3,2,2,255,2
9,28,10,-7,-3,2,-5,256,2
9,29,1,-4,-13,2,-7,636,2
9,29,2,-4,-13,1,-4,237,2
9,29,3,-4,-13,2,-8,539,2
9,29,4,-4,-13,2,-23,378,2
9,29,5,-4,-13,1,-4,300,2
9,29,6,-4,-13,1,-4,231,2
9,29,7,-4,-13,1,-4,325,2
9,29,8,-4,-13,1,-4,244,2
9,29,9,-4,-13,1,-4,262,2
9,29,10,-4,-13,1,-4,747,2
9,30,1,5,2,1,5,376,4
9,30,2,5,2,2,2,266,4
9,30,3,5,2,1,5,235,4
9,30,4,5,2,1,5,228,4
9,30,5,5,2,1,5,4559,4
9,30,6,5,2,1,5,275,4
9,30,7,5,2,1,5,379,4
9,30,8,5,2,1,5,518,4
9,30,9,5,2,1,5,270,4
9,30,10,5,2,1,5,312,4
10,1,1,-3,-13,2,-13,4705,3
10,1,2,-3,-13,1,-1,926,3
10,1,3,-3,-13,1,-7,1416,3
10,1,4,-3,-13,2,-14,856,3
10,1,5,-3,-13,1,2,584,3
10,1,6,-3,-13,1,11,495,3
10,1,7,-3,-13,1,5,623,3
10,1,8,-3,-13,1,0,521,3
10,1,9,-3,-13,1,-14,568,3
10,1,10,-3,-13,1,-3,1512,3
10,2,1,4,6,1,4,1641,2
10,2,2,4,6,2,-2,473,2
10,2,3,4,6,2,9,496,2
10,2,4,4,6,2,14,657,2
10,2,5,4,6,2,7,480,2
10,2,6,4,6,2,13,535,2
10,2,7,4,6,2,1,504,2
10,2,8,4,6,2,-9,512,2
10,2,9,4,6,2,8,496,2
10,2,10,4,6,1,4,488,2
10,3,1,10,23,2,23,1384,1
10,3,2,10,23,1,14,591,1
10,3,3,10,23,1,15,496,1
10,3,4,10,23,2,23,415,1
10,3,5,10,23,2,23,415,1
10,3,6,10,23,2,23,415,1
10,3,7,10,23,2,23,448,1
10,3,8,10,23,2,23,431,1
10,3,9,10,23,2,23,416,1
10,3,10,10,23,2,23,471,1
10,4,1,-2,-9,2,-9,1831,4
10,4,2,-2,-9,1,-2,512,4
10,4,3,-2,-9,1,-2,503,4
10,4,4,-2,-9,1,-2,1208,4
10,4,5,-2,-9,1,-2,415,4
10,4,6,-2,-9,1,-2,432,4
10,4,7,-2,-9,1,-2,448,4
10,4,8,-2,-9,1,-2,464,4
10,4,9,-2,-9,1,-2,456,4
10,4,10,-2,-9,1,-2,488,4
10,5,1,-11,2,2,8,1160,3
10,5,2,-11,2,1,-24,464,3
10,5,3,-11,2,1,-16,727,3
10,5,4,-11,2,2,5,375,3
10,5,5,-11,2,2,-9,399,3
10,5,6,-11,2,2,-7,360,3
10,5,7,-11,2,2,2,423,3
10,5,8,-11,2,2,5,384,3
10,5,9,-11,2,2,-1,391,3
10,5,10,-11,2,2,1,415,3
10,6,1,-6,9,1,-6,1344,2
10,6,2,-6,9,2,4,376,2
10,6,3,-6,9,2,6,360,2
10,6,4,-6,9,2,7,375,2
10,6,5,-6,9,2,-4,391,2
10,6,6,-6,9,2,8,423,2
10,6,7,-6,9,2,2,441,2
10,6,8,-6,9,2,17,488,2
10,6,9,-6,9,2,21,423,2
10,6,10,-6,9,2,11,448,2
10,7,1,15,5,1,7,2432,1
10,7,2,15,5,2,5,449,1
10,7,3,15,5,1,14,1320,1
10,7,4,15,5,1,12,439,1
10,7,5,15,5,1,19,422,1
10,7,6,15,5,1,8,504,1
10,7,7,15,5,1,23,407,1
10,7,8,15,5,1,16,479,1
10,7,9,15,5,1,16,488,1
10,7,10,15,5,1,13,447,1
10,8,1,-1,2,2,2,1256,4
10,8,2,-1,2,1,-1,391,4
10,8,3,-1,2,2,2,712,4
10,8,4,-1,2,2,2,512,4
10,8,5,-1,2,2,2,463,4
10,8,6,-1,2,2,2,352,4
10,8,7,-1,2,2,2,432,4
10,8,8,-1,2,2,2,448,4
10,8,9,-1,2,2,2,440,4
10,8,10,-1,2,2,2,576,4
10,9,1,10,1,1,3,1008,3
10,9,2,10,1,2,-8,408,3
10,9,3,10,1,2,6,488,3
10,9,4,10,1,1,14,448,3
10,9,5,10,1,1,8,392,3
10,9,6,10,1,1,10,407,3
10,9,7,10,1,1,11,472,3
10,9,8,10,1,1,6,527,3
10,9,9,10,1,1,9,583,3
10,9,10,10,1,1,9,504,3
10,10,1,2,-1,2,-1,864,4
10,10,2,2,-1,1,2,391,4
10,10,3,2,-1,1,2,376,4
10,10,4,2,-1,1,2,399,4
10,10,5,2,-1,1,2,881,4
10,10,6,2,-1,1,2,424,4
10,10,7,2,-1,1,2,440,4
10,10,8,2,-1,1,2,647,4
10,10,9,2,-1,1,2,503,4
10,10,10,2,-1,1,2,448,4
10,11,1,8,-4,2,-11,5873,2
10,11,2,8,-4,1,8,359,2
10,11,3,8,-4,1,8,416,2
10,11,4,8,-4,1,8,416,2
10,11,5,8,-4,2,-1,472,2
10,11,6,8,-4,1,8,424,2
10,11,7,8,-4,1,8,551,2
10,11,8,8,-4,1,8,456,2
10,11,9,8,-4,1,8,439,2
10,11,10,8,-4,1,8,1041,2
10,12,1,-4,3,2,3,3536,4
10,12,2,-4,3,1,-4,744,4
10,12,3,-4,3,2,3,608,4
10,12,4,-4,3,2,3,447,4
10,12,5,-4,3,2,3,415,4
10,12,6,-4,3,2,3,440,4
10,12,7,-4,3,2,3,472,4
10,12,8,-4,3,2,3,528,4
10,12,9,-4,3,2,3,479,4
10,12,10,-4,3,2,3,487,4
10,13,1,2,-16,1,6,1232,3
10,13,2,2,-16,2,-20,1047,3
10,13,3,2,-16,1,5,625,3
10,13,4,2,-16,1,-2,407,3
10,13,5,2,-16,2,-13,583,3
10,13,6,2,-16,1,2,415,3
10,13,7,2,-16,1,7,472,3
10,13,8,2,-16,1,11,414,3
10,13,9,2,-16,1,9,519,3
10,13,10,2,-16,1,-6,503,3
10,14,1,-2,1,1,-2,1336,2
10,14,2,-2,1,2,-1,5679,2
10,14,3,-2,1,2,1,639,2
10,14,4,-2,1,2,11,433,2
10,14,5,-2,1,2,6,399,2
10,14,6,-2,1,2,3,480,2
10,14,7,-2,1,2,6,463,2
10,14,8,-2,1,2,13,857,2
10,14,9,-2,1,2,3,448,2
10,14,10,-2,1,2,8,568,2
10,15,1,17,9,1,17,1728,2
10,15,2,17,9,2,17,784,2
10,15,3,17,9,2,26,488,2
10,15,4,17,9,2,8,447,2
10,15,5,17,9,2,14,431,2
10,15,6,17,9,2,10,559,2
10,15,7,17,9,2,5,558,2
10,15,8,17,9,2,3,824,2
10,15,9,17,9,1,17,463,2
10,15,10,17,9,1,17,456,2
10,16,1,1,17,2,17,3176,1
10,16,2,1,17,1,10,464,1
10,16,3,1,17,1,5,416,1
10,16,4,1,17,2,17,776,1
10,16,5,1,17,2,17,471,1
10,16,6,1,17,2,17,488,1
10,16,7,1,17,2,17,512,1
10,16,8,1,17,2,17,600,1
10,16,9,1,17,2,17,497,1
10,16,10,1,17,2,17,551,1
10,17,1,9,1,2,1,1456,1
10,17,2,9,1,1,-4,471,1
10,17,3,9,1,1,11,391,1
10,17,4,9,1,1,4,433,1
10,17,5,9,1,1,17,464,1
10,17,6,9,1,1,6,479,1
10,17,7,9,1,1,7,480,1
10,17,8,9,1,1,15,512,1
10,17,9,9,1,1,6,527,1
10,17,10,9,1,1,8,478,1
10,18,1,6,5,1,16,1433,3
10,18,2,6,5,2,21,671,3
10,18,3,6,5,2,4,496,3
10,18,4,6,5,2,8,729,3
10,18,5,6,5,1,-10,543,3
10,18,6,6,5,2,5,473,3
10,18,7,6,5,2,-4,456,3
10,18,8,6,5,2,12,464,3
10,18,9,6,5,2,5,615,3
10,18,10,6,5,2,-5,496,3
10,19,1,-25,8,1,-25,2807,3
10,19,2,-25,8,2,11,568,3
10,19,3,-25,8,2,12,407,3
10,19,4,-25,8,2,10,472,3
10,19,5,-25,8,2,2,655,3
10,19,6,-25,8,2,21,487,3
10,19,7,-25,8,2,13,472,3
10,19,8,-25,8,2,12,456,3
10,19,9,-25,8,2,2,472,3
10,19,10,-25,8,2,10,495,3
10,20,1,-9,3,2,3,929,1
10,20,2,-9,3,1,-13,446,1
10,20,3,-9,3,1,-9,360,1
10,20,4,-9,3,2,3,488,1
10,20,5,-9,3,2,3,399,1
10,20,6,-9,3,2,3,448,1
10,20,7,-9,3,2,3,527,1
10,20,8,-9,3,2,3,472,1
10,20,9,-9,3,2,3,544,1
10,20,10,-9,3,2,3,496,1
10,21,1,-4,-6,2,-6,1376,1
10,21,2,-4,-6,1,-1,752,1
10,21,3,-4,-6,1,7,495,1
10,21,4,-4,-6,1,-6,415,1
10,21,5,-4,-6,1,0,423,1
10,21,6,-4,-6,1,3,448,1
10,21,7,-4,-6,1,-11,520,1
10,21,8,-4,-6,1,-6,487,1
10,21,9,-4,-6,1,-3,456,1
10,21,10,-4,-6,1,2,448,1
10,22,1,-2,12,1,-2,2040,2
10,22,2,-2,12,2,17,623,2
10,22,3,-2,12,2,5,399,2
10,22,4,-2,12,2,4,608,2
10,22,5,-2,12,2,14,496,2
10,22,6,-2,12,2,15,456,2
10,22,7,-2,12,2,14,576,2
10,22,8,-2,12,2,17,576,2
10,22,9,-2,12,2,17,481,2
10,22,10,-2,12,2,16,496,2
10,23,1,-9,8,1,-9,1072,4
10,23,2,-9,8,2,8,408,4
10,23,3,-9,8,2,8,407,4
10,23,4,-9,8,2,8,431,4
10,23,5,-9,8,2,8,408,4
10,23,6,-9,8,2,8,439,4
10,23,7,-9,8,2,8,496,4
10,23,8,-9,8,2,8,496,4
10,23,9,-9,8,2,8,407,4
10,23,10,-9,8,2,8,535,4
10,24,1,0,17,1,2,1241,3
10,24,2,0,17,2,14,679,3
10,24,3,0,17,2,15,1328,3
10,24,4,0,17,2,11,456,3
10,24,5,0,17,2,17,392,3
10,24,6,0,17,2,16,439,3
10,24,7,0,17,2,18,423,3
10,24,8,0,17,2,16,440,3
10,24,9,0,17,2,26,431,3
10,24,10,0,17,2,29,423,3
10,25,1,12,0,2,0,2144,1
10,25,2,12,0,1,13,719,1
10,25,3,12,0,1,21,359,1
10,25,4,12,0,1,20,407,1
10,25,5,12,0,1,4,400,1
10,25,6,12,0,1,10,431,1
10,25,7,12,0,1,8,423,1
10,25,8,12,0,1,15,440,1
10,25,9,12,0,1,11,424,1
10,25,10,12,0,1,21,416,1
10,26,1,-3,7,2,7,712,1
10,26,2,-3,7,1,-11,543,1
10,26,3,-3,7,1,8,463,1
10,26,4,-3,7,1,3,424,1
10,26,5,-3,7,1,-6,423,1
10,26,6,-3,7,1,-1,416,1
10,26,7,-3,7,1,5,424,1
10,26,8,-3,7,1,-10,423,1
10,26,9,-3,7,1,-5,1759,1
10,26,10,-3,7,1,3,367,1
10,27,1,13,-7,1,13,1032,2
10,27,2,13,-7,2,-9,856,2
10,27,3,13,-7,2,-8,560,2
10,27,4,13,-7,1,13,472,2
10,27,5,13,-7,1,13,423,2
10,27,6,13,-7,1,13,408,2
10,27,7,13,-7,1,13,447,2
10,27,8,13,-7,1,13,464,2
10,27,9,13,-7,1,13,464,2
10,27,10,13,-7,1,13,448,2
10,28,1,10,-4,1,8,1345,3
10,28,2,10,-4,2,-8,743,3
10,28,3,10,-4,1,3,745,3
10,28,4,10,-4,1,11,424,3
10,28,5,10,-4,1,10,392,3
10,28,6,10,-4,1,4,424,3
10,28,7,10,-4,1,14,448,3
10,28,8,10,-4,1,7,415,3
10,28,9,10,-4,1,19,440,3
10,28,10,10,-4,1,16,695,3
10,29,1,14,-5,2,-5,1057,1
10,29,2,14,-5,1,6,496,1
10,29,3,14,-5,1,10,383,1
10,29,4,14,-5,1,21,408,1
10,29,5,14,-5,1,10,520,1
10,29,6,14,-5,1,13,415,1
10,29,7,14,-5,1,5,504,1
10,29,8,14,-5,1,6,496,1
10,29,9,14,-5,1,17,479,1
10,29,10,14,-5,1,12,464,1
10,30,1,4,-3,1,4,1192,4
10,30,2,4,-3,2,-3,559,4
10,30,3,4,-3,1,4,456,4
10,30,4,4,-3,1,4,456,4
10,30,5,4,-3,1,4,425,4
10,30,6,4,-3,1,4,496,4
10,30,7,4,-3,1,4,535,4
10,30,8,4,-3,1,4,487,4
10,30,9,4,-3,1,4,775,4
10,30,10,4,-3,1,4,527,4
11,1,1,9,8,2,8,9231,2
11,1,2,9,8,1,9,1400,2
11,1,3,9,8,1,9,683,2
11,1,4,9,8,1,9,600,2
11,1,5,9,8,1,9,537,2
11,1,6,9,8,1,9,492,2
11,1,7,9,8,1,9,420,2
11,1,8,9,8,1,9,467,2
11,1,9,9,8,1,9,398,2
11,1,10,9,8,1,9,436,2
11,2,1,1,8,1,1,1636,4
11,2,2,1,8,2,8,430,4
11,2,3,1,8,2,8,403,4
11,2,4,1,8,2,8,390,4
11,2,5,1,8,2,8,396,4
11,2,6,1,8,2,8,390,4
11,2,7,1,8,2,8,373,4
11,2,8,1,8,2,8,381,4
11,2,9,1,8,2,8,430,4
11,2,10,1,8,2,8,412,4
11,3,1,-2,8,1,-2,1575,2
11,3,2,-2,8,2,17,398,2
11,3,3,-2,8,2,0,404,2
11,3,4,-2,8,2,12,388,2
11,3,5,-2,8,2,11,422,2
11,3,6,-2,8,2,3,492,2
11,3,7,-2,8,2,0,490,2
11,3,8,-2,8,2,13,444,2
11,3,9,-2,8,2,4,468,2
11,3,10,-2,8,2,-5,522,2
11,4,1,-6,9,1,-7,1200,3
11,4,2,-6,9,2,13,530,3
11,4,3,-6,9,2,-1,780,3
11,4,4,-6,9,1,-12,520,3
11,4,5,-6,9,2,12,405,3
11,4,6,-6,9,2,11,459,3
11,4,7,-6,9,2,14,482,3
11,4,8,-6,9,2,15,585,3
11,4,9,-6,9,2,8,497,3
11,4,10,-6,9,2,13,467,3
11,5,1,-4,-1,1,-4,1020,2
11,5,2,-4,-1,2,-6,405,2
11,5,3,-4,-1,1,-4,585,2
11,5,4,-4,-1,2,3,460,2
11,5,5,-4,-1,2,0,389,2
11,5,6,-4,-1,2,-6,435,2
11,5,7,-4,-1,2,-15,395,2
11,5,8,-4,-1,2,-3,437,2
11,5,9,-4,-1,2,2,535,2
11,5,10,-4,-1,2,-1,443,2
11,6,1,0,11,2,-1,770,3
11,6,2,0,11,1,0,630,3
11,6,3,0,11,2,3,451,3
11,6,4,0,11,2,4,381,3
11,6,5,0,11,2,13,405,3
11,6,6,0,11,2,9,411,3
11,6,7,0,11,2,10,403,3
11,6,8,0,11,2,15,475,3
11,6,9,0,11,2,14,505,3
11,6,10,0,11,2,20,489,3
11,7,1,3,7,1,3,912,4
11,7,2,3,7,1,3,395,4
11,7,3,3,7,1,3,365,4
11,7,4,3,7,1,3,445,4
11,7,5,3,7,2,7,373,4
11,7,6,3,7,2,7,373,4
11,7,7,3,7,2,7,357,4
11,7,8,3,7,2,7,357,4
11,7,9,3,7,2,7,405,4
11,7,10,3,7,2,7,373,4
11,8,1,3,16,1,3,950,2
11,8,2,3,16,2,24,367,2
11,8,3,3,16,2,19,358,2
11,8,4,3,16,2,14,366,2
11,8,5,3,16,2,18,351,2
11,8,6,3,16,2,15,365,2
11,8,7,3,16,2,16,358,2
11,8,8,3,16,2,14,405,2
11,8,9,3,16,2,23,373,2
11,8,10,3,16,2,29,389,2
11,9,1,-1,-19,1,15,1061,1
11,9,2,-1,-19,1,6,413,1
11,9,3,-1,-19,1,4,411,1
11,9,4,-1,-19,2,-19,373,1
11,9,5,-1,-19,1,0,389,1
11,9,6,-1,-19,1,0,373,1
11,9,7,-1,-19,1,6,395,1
11,9,8,-1,-19,1,-5,459,1
11,9,9,-1,-19,1,4,521,1
11,9,10,-1,-19,1,-11,437,1
11,10,1,4,-10,2,-10,1098,1
11,10,2,4,-10,1,14,445,1
11,10,3,4,-10,1,9,419,1
11,10,4,4,-10,1,2,443,1
11,10,5,4,-10,1,5,397,1
11,10,6,4,-10,1,-2,429,1
11,10,7,4,-10,1,0,421,1
11,10,8,4,-10,1,-1,405,1
11,10,9,4,-10,1,0,382,1
11,10,10,4,-10,1,-1,591,1
11,11,1,-16,12,2,6,1006,2
11,11,2,-16,12,1,-16,507,2
11,11,3,-16,12,2,4,397,2
11,11,4,-16,12,2,20,4960,2
11,11,5,-16,12,2,24,482,2
11,11,6,-16,12,2,11,529,2
11,11,7,-16,12,2,7,1379,2
11,11,8,-16,12,2,1,489,2
11,11,9,-16,12,2,16,397,2
11,11,10,-16,12,2,5,445,2
11,12,1,6,-5,2,-15,3446,3
11,12,2,6,-5,1,9,403,3
11,12,3,6,-5,1,9,445,3
11,12,4,6,-5,1,3,467,3
11,12,5,6,-5,1,13,451,3
11,12,6,6,-5,1,9,397,3
11,12,7,6,-5,1,13,404,3
11,12,8,6,-5,1,7,481,3
11,12,9,6,-5,1,8,434,3
11,12,10,6,-5,1,13,404,3
11,13,1,-12,11,2,24,25480,2
11,13,2,-12,11,2,19,374,2
11,13,3,-12,11,2,6,389,2
11,13,4,-12,11,2,10,373,2
11,13,5,-12,11,2,23,411,2
11,13,6,-12,11,2,7,382,2
11,13,7,-12,11,2,11,359,2
11,13,8,-12,11,2,17,357,2
11,13,9,-12,11,2,8,382,2
11,13,10,-12,11,2,-11,405,2
11,14,1,-11,6,2,6,1.9069e+05,1
11,14,2,-11,6,1,-16,406,1
11,14,3,-11,6,2,6,422,1
11,14,4,-11,6,2,6,398,1
11,14,5,-11,6,2,6,382,1
11,14,6,-11,6,2,6,428,1
11,14,7,-11,6,2,6,420,1
11,14,8,-11,6,2,6,406,1
11,14,9,-11,6,2,6,452,1
11,14,10,-11,6,2,6,397,1
11,15,1,9,-3,2,-3,648,4
11,15,2,9,-3,1,9,872,4
11,15,3,9,-3,1,9,406,4
11,15,4,9,-3,1,9,390,4
11,15,5,9,-3,1,9,352,4
11,15,6,9,-3,1,9,373,4
11,15,7,9,-3,1,9,452,4
11,15,8,9,-3,1,9,421,4
11,15,9,9,-3,1,9,437,4
11,15,10,9,-3,1,9,412,4
11,16,1,-1,-9,2,2,1194,3
11,16,2,-1,-9,1,-9,444,3
11,16,3,-1,-9,2,1,404,3
11,16,4,-1,-9,2,-14,336,3
11,16,5,-1,-9,1,2,336,3
11,16,6,-1,-9,2,-8,412,3
11,16,7,-1,-9,1,-7,382,3
11,16,8,-1,-9,2,-5,382,3
11,16,9,-1,-9,1,1,460,3
11,16,10,-1,-9,1,-3,608,3
11,17,1,-8,12,2,12,1682,1
11,17,2,-8,12,1,-17,732,1
11,17,3,-8,12,2,12,406,1
11,17,4,-8,12,2,12,312,1
11,17,5,-8,12,2,12,365,1
11,17,6,-8,12,2,12,585,1
11,17,7,-8,12,2,12,412,1
11,17,8,-8,12,2,12,1255,1
11,17,9,-8,12,2,12,467,1
11,17,10,-8,12,2,12,397,1
11,18,1,-9,14,2,14,921,1
11,18,2,-9,14,2,14,389,1
11,18,3,-9,14,2,14,358,1
11,18,4,-9,14,2,14,349,1
11,18,5,-9,14,2,14,366,1
11,18,6,-9,14,2,14,358,1
11,18,7,-9,14,2,14,374,1
11,18,8,-9,14,2,14,336,1
11,18,9,-9,14,2,14,350,1
11,18,10,-9,14,2,14,413,1
11,19,1,5,-6,2,-6,4178,1
11,19,2,5,-6,1,14,460,1
11,19,3,5,-6,1,0,382,1
11,19,4,5,-6,1,2,452,1
11,19,5,5,-6,1,6,436,1
11,19,6,5,-6,1,4,422,1
11,19,7,5,-6,1,10,404,1
11,19,8,5,-6,1,10,422,1
11,19,9,5,-6,1,1,396,1
11,19,10,5,-6,1,1,435,1
11,20,1,9,-7,2,-5,657,2
11,20,2,9,-7,1,9,397,2
11,20,3,9,-7,1,9,335,2
11,20,4,9,-7,1,9,351,2
11,20,5,9,-7,1,9,419,2
11,20,6,9,-7,1,9,467,2
11,20,7,9,-7,1,9,366,2
11,20,8,9,-7,1,9,396,2
11,20,9,9,-7,1,9,365,2
11,20,10,9,-7,1,9,382,2
11,21,1,-5,-5,2,-5,632,1
11,21,2,-5,-5,1,-4,342,1
11,21,3,-5,-5,1,-7,309,1
11,21,4,-5,-5,1,-4,333,1
11,21,5,-5,-5,1,-8,365,1
11,21,6,-5,-5,1,-5,349,1
11,21,7,-5,-5,2,-5,373,1
11,21,8,-5,-5,1,-7,365,1
11,21,9,-5,-5,1,-5,327,1
11,21,10,-5,-5,1,0,357,1
11,22,1,-3,5,2,5,678,1
11,22,2,-3,5,1,-2,365,1
11,22,3,-3,5,2,5,349,1
11,22,4,-3,5,2,5,319,1
11,22,5,-3,5,1,-5,382,1
11,22,6,-3,5,2,5,343,1
11,22,7,-3,5,1,-2,359,1
11,22,8,-3,5,2,5,351,1
11,22,9,-3,5,2,5,327,1
11,22,10,-3,5,2,5,326,1
11,23,1,7,14,2,18,751,2
11,23,2,7,14,2,13,327,2
11,23,3,7,14,2,7,317,2
11,23,4,7,14,2,3,343,2
11,23,5,7,14,2,15,357,2
11,23,6,7,14,2,14,373,2
11,23,7,7,14,2,12,373,2
11,23,8,7,14,2,10,398,2
11,23,9,7,14,2,17,390,2
11,23,10,7,14,2,29,388,2
11,24,1,-8,6,2,16,631,3
11,24,2,-8,6,1,-2,460,3
11,24,3,-8,6,2,4,352,3
11,24,4,-8,6,2,6,326,3
11,24,5,-8,6,2,20,390,3
11,24,6,-8,6,2,15,366,3
11,24,7,-8,6,2,9,396,3
11,24,8,-8,6,2,-3,420,3
11,24,9,-8,6,2,6,411,3
11,24,10,-8,6,2,12,430,3
11,25,1,-10,-8,1,-10,844,4
11,25,2,-10,-8,2,-8,405,4
11,25,3,-10,-8,2,-8,444,4
11,25,4,-10,-8,2,-8,381,4
11,25,5,-10,-8,2,-8,382,4
11,25,6,-10,-8,2,-8,382,4
11,25,7,-10,-8,2,-8,398,4
11,25,8,-10,-8,2,-8,367,4
11,25,9,-10,-8,2,-8,398,4
11,25,10,-10,-8,2,-8,358,4
11,26,1,8,4,2,4,577,4
11,26,2,8,4,2,4,365,4
11,26,3,8,4,2,4,404,4
11,26,4,8,4,2,4,411,4
11,26,5,8,4,2,4,374,4
11,26,6,8,4,1,8,396,4
11,26,7,8,4,1,8,382,4
11,26,8,8,4,1,8,414,4
11,26,9,8,4,1,8,656,4
11,26,10,8,4,1,8,381,4
11,27,1,13,-21,2,-21,633,1
11,27,2,13,-21,1,7,381,1
11,27,3,13,-21,1,16,350,1
11,27,4,13,-21,1,0,381,1
11,27,5,13,-21,1,11,335,1
11,27,6,13,-21,1,15,388,1
11,27,7,13,-21,1,10,349,1
11,27,8,13,-21,1,16,365,1
11,27,9,13,-21,1,-2,413,1
11,27,10,13,-21,1,27,404,1
11,28,1,4,2,2,2,5308,1
11,28,2,4,2,1,-4,599,1
11,28,3,4,2,1,-16,358,1
11,28,4,4,2,2,2,357,1
11,28,5,4,2,1,-2,343,1
11,28,6,4,2,2,2,333,1
11,28,7,4,2,1,-5,443,1
11,28,8,4,2,2,2,348,1
11,28,9,4,2,2,2,357,1
11,28,10,4,2,2,2,357,1
11,29,1,-9,-6,2,-6,592,4
11,29,2,-9,-6,1,-9,412,4
11,29,3,-9,-6,1,-9,411,4
11,29,4,-9,-6,2,-6,342,4
11,29,5,-9,-6,2,-6,328,4
11,29,6,-9,-6,2,-6,358,4
11,29,7,-9,-6,2,-6,421,4
11,29,8,-9,-6,2,-6,389,4
11,29,9,-9,-6,2,-6,373,4
11,29,10,-9,-6,2,-6,398,4
11,30,1,9,0,2,-2,538,3
11,30,2,9,0,1,16,381,3
11,30,3,9,0,1,12,343,3
11,30,4,9,0,1,10,335,3
11,30,5,9,0,1,11,365,3
11,30,6,9,0,1,14,413,3
11,30,7,9,0,1,11,387,3
11,30,8,9,0,1,4,413,3
11,30,9,9,0,1,14,451,3
11,30,10,9,0,1,4,397,3
12,1,1,10,-4,1,15,2349,1
12,1,2,10,-4,1,7,580,1
12,1,3,10,-4,2,-4,734,1
12,1,4,10,-4,1,11,401,1
12,1,5,10,-4,1,6,430,1
12,1,6,10,-4,1,9,333,1
12,1,7,10,-4,2,-4,362,1
12,1,8,10,-4,1,9,531,1
12,1,9,10,-4,1,13,461,1
12,1,10,10,-4,1,7,337,1
12,2,1,0,-9,1,-2,1049,3
12,2,2,0,-9,2,-5,371,3
12,2,3,0,-9,1,11,498,3
12,2,4,0,-9,1,-7,522,3
12,2,5,0,-9,2,-21,482,3
12,2,6,0,-9,1,-2,381,3
12,2,7,0,-9,1,4,535,3
12,2,8,0,-9,1,-2,355,3
12,2,9,0,-9,1,3,429,3
12,2,10,0,-9,1,-8,411,3
12,3,1,-4,4,1,-6,579,3
12,3,2,-4,4,2,-3,302,3
12,3,3,-4,4,2,1,412,3
12,3,4,-4,4,2,7,343,3
12,3,5,-4,4,2,7,318,3
12,3,6,-4,4,2,15,351,3
12,3,7,-4,4,2,3,431,3
12,3,8,-4,4,2,-3,335,3
12,3,9,-4,4,2,8,315,3
12,3,10,-4,4,2,9,380,3
12,4,1,-7,0,2,0,676,1
12,4,2,-7,0,1,5,609,1
12,4,3,-7,0,1,-8,301,1
12,4,4,-7,0,2,0,499,1
12,4,5,-7,0,2,0,352,1
12,4,6,-7,0,1,-7,382,1
12,4,7,-7,0,1,-14,334,1
12,4,8,-7,0,1,-6,277,1
12,4,9,-7,0,1,8,349,1
12,4,10,-7,0,1,-9,385,1
12,5,1,7,9,1,7,465,4
12,5,2,7,9,2,9,336,4
12,5,3,7,9,2,9,318,4
12,5,4,7,9,1,7,446,4
12,5,5,7,9,2,9,317,4
12,5,6,7,9,2,9,361,4
12,5,7,7,9,2,9,303,4
12,5,8,7,9,2,9,213,4
12,5,9,7,9,2,9,301,4
12,5,10,7,9,2,9,396,4
12,6,1,-5,7,2,7,1024,1
12,6,2,-5,7,1,-7,396,1
12,6,3,-5,7,2,7,591,1
12,6,4,-5,7,2,7,235,1
12,6,5,-5,7,2,7,270,1
12,6,6,-5,7,2,7,286,1
12,6,7,-5,7,2,7,415,1
12,6,8,-5,7,2,7,334,1
12,6,9,-5,7,2,7,377,1
12,6,10,-5,7,2,7,312,1
12,7,1,-1,7,2,13,500,3
12,7,2,-1,7,1,3,289,3
12,7,3,-1,7,2,0,252,3
12,7,4,-1,7,2,6,351,3
12,7,5,-1,7,1,1,396,3
12,7,6,-1,7,1,1,321,3
12,7,7,-1,7,2,9,315,3
12,7,8,-1,7,2,22,253,3
12,7,9,-1,7,2,8,285,3
12,7,10,-1,7,2,12,335,3
12,8,1,-17,3,2,1,661,2
12,8,2,-17,3,1,-17,575,2
12,8,3,-17,3,2,17,401,2
12,8,4,-17,3,2,7,287,2
12,8,5,-17,3,2,-4,288,2
12,8,6,-17,3,2,12,303,2
12,8,7,-17,3,2,14,277,2
12,8,8,-17,3,2,4,350,2
12,8,9,-17,3,2,7,351,2
12,8,10,-17,3,2,10,380,2
12,9,1,5,-4,2,-4,527,4
12,9,2,5,-4,1,5,381,4
12,9,3,5,-4,1,5,351,4
12,9,4,5,-4,1,5,269,4
12,9,5,5,-4,1,5,286,4
12,9,6,5,-4,1,5,337,4
12,9,7,5,-4,1,5,2685,4
12,9,8,5,-4,1,5,591,4
12,9,9,5,-4,1,5,333,4
12,9,10,5,-4,1,5,377,4
12,10,1,2,-8,2,-8,721,4
12,10,2,2,-8,1,2,379,4
12,10,3,2,-8,1,2,242,4
12,10,4,2,-8,1,2,255,4
12,10,5,2,-8,1,2,255,4
12,10,6,2,-8,1,2,290,4
12,10,7,2,-8,1,2,412,4
12,10,8,2,-8,2,-8,285,4
12,10,9,2,-8,1,2,288,4
12,10,10,2,-8,1,2,507,4
12,11,1,-20,-3,1,-26,483,1
12,11,2,-20,-3,2,-3,399,1
12,11,3,-20,-3,2,-3,299,1
12,11,4,-20,-3,1,-17,397,1
12,11,5,-20,-3,2,-3,382,1
12,11,6,-20,-3,2,-3,292,1
12,11,7,-20,-3,2,-3,239,1
12,11,8,-20,-3,2,-3,287,1
12,11,9,-20,-3,2,-3,315,1
12,11,10,-20,-3,2,-3,332,1
12,12,1,8,5,2,-2,577,2
12,12,2,8,5,1,8,333,2
12,12,3,8,5,1,8,269,2
12,12,4,8,5,1,8,259,2
12,12,5,8,5,1,8,256,2
12,12,6,8,5,1,8,262,2
12,12,7,8,5,1,8,269,2
12,12,8,8,5,1,8,254,2
12,12,9,8,5,1,8,318,2
12,12,10,8,5,1,8,316,2
12,13,1,-4,2,1,-4,577,4
12,13,2,-4,2,2,2,495,4
12,13,3,-4,2,2,2,466,4
12,13,4,-4,2,2,2,256,4
12,13,5,-4,2,2,2,253,4
12,13,6,-4,2,2,2,269,4
12,13,7,-4,2,2,2,286,4
12,13,8,-4,2,2,2,260,4
12,13,9,-4,2,2,2,272,4
12,13,10,-4,2,2,2,302,4
12,14,1,15,-4,2,-4,481,1
12,14,2,15,-4,1,14,413,1
12,14,3,15,-4,1,24,276,1
12,14,4,15,-4,1,13,327,1
12,14,5,15,-4,1,19,285,1
12,14,6,15,-4,1,13,340,1
12,14,7,15,-4,1,18,340,1
12,14,8,15,-4,1,26,387,1
12,14,9,15,-4,1,9,315,1
12,14,10,15,-4,1,15,315,1
12,15,1,-6,-4,1,-6,567,4
12,15,2,-6,-4,2,-4,318,4
12,15,3,-6,-4,2,-4,286,4
12,15,4,-6,-4,2,-4,271,4
12,15,5,-6,-4,1,-6,430,4
12,15,6,-6,-4,2,-4,962,4
12,15,7,-6,-4,2,-4,895,4
12,15,8,-6,-4,2,-4,493,4
12,15,9,-6,-4,2,-4,402,4
12,15,10,-6,-4,2,-4,399,4
12,16,1,-1,-2,2,-2,688,1
12,16,2,-1,-2,1,-2,288,1
12,16,3,-1,-2,2,-2,460,1
12,16,4,-1,-2,1,-11,414,1
12,16,5,-1,-2,2,-2,318,1
12,16,6,-1,-2,2,-2,283,1
12,16,7,-1,-2,2,-2,318,1
12,16,8,-1,-2,2,-2,415,1
12,16,9,-1,-2,2,-2,316,1
12,16,10,-1,-2,2,-2,304,1
12,17,1,8,1,2,1,432,1
12,17,2,8,1,1,13,326,1
12,17,3,8,1,1,2,458,1
12,17,4,8,1,1,4,302,1
12,17,5,8,1,1,13,333,1
12,17,6,8,1,1,1,318,1
12,17,7,8,1,1,1,275,1
12,17,8,8,1,1,14,518,1
12,17,9,8,1,1,9,361,1
12,17,10,8,1,1,8,414,1
12,18,1,0,12,1,1,3636,1
12,18,2,0,12,2,12,315,1
12,18,3,0,12,2,12,269,1
12,18,4,0,12,2,12,302,1
12,18,5,0,12,2,12,284,1
12,18,6,0,12,2,12,307,1
12,18,7,0,12,2,12,286,1
12,18,8,0,12,2,12,225,1
12,18,9,0,12,2,12,279,1
12,18,10,0,12,2,12,300,1
12,19,1,15,3,2,6,688,2
12,19,2,15,3,1,15,478,2
12,19,3,15,3,1,15,523,2
12,19,4,15,3,1,15,334,2
12,19,5,15,3,1,15,365,2
12,19,6,15,3,1,15,346,2
12,19,7,15,3,1,15,312,2
12,19,8,15,3,1,15,319,2
12,19,9,15,3,1,15,319,2
12,19,10,15,3,1,15,363,2
12,20,1,11,-8,1,10,32326,3
12,20,2,11,-8,2,2,405,3
12,20,3,11,-8,1,13,318,3
12,20,4,11,-8,1,13,235,3
12,20,5,11,-8,1,21,261,3
12,20,6,11,-8,1,18,350,3
12,20,7,11,-8,1,16,270,3
12,20,8,11,-8,1,7,270,3
12,20,9,11,-8,1,9,270,3
12,20,10,11,-8,1,12,291,3
12,21,1,15,-2,1,14,512,3
12,21,2,15,-2,2,-8,300,3
12,21,3,15,-2,1,11,266,3
12,21,4,15,-2,1,5,252,3
12,21,5,15,-2,1,22,254,3
12,21,6,15,-2,1,12,303,3
12,21,7,15,-2,1,20,351,3
12,21,8,15,-2,1,19,291,3
12,21,9,15,-2,1,13,402,3
12,21,10,15,-2,1,11,255,3
12,22,1,-6,0,1,-6,406,2
12,22,2,-6,0,2,3,257,2
12,22,3,-6,0,2,-5,285,2
12,22,4,-6,0,2,5,414,2
12,22,5,-6,0,2,4,288,2
12,22,6,-6,0,2,-1,278,2
12,22,7,-6,0,2,6,254,2
12,22,8,-6,0,2,3,321,2
12,22,9,-6,0,2,-4,285,2
12,22,10,-6,0,2,-3,325,2
12,23,1,-5,8,1,-5,946,4
12,23,2,-5,8,2,8,591,4
12,23,3,-5,8,2,8,270,4
12,23,4,-5,8,2,8,249,4
12,23,5,-5,8,2,8,260,4
12,23,6,-5,8,2,8,285,4
12,23,7,-5,8,2,8,320,4
12,23,8,-5,8,2,8,286,4
12,23,9,-5,8,2,8,311,4
12,23,10,-5,8,2,8,301,4
12,24,1,4,-18,2,-18,512,1
12,24,2,4,-18,1,7,543,1
12,24,3,4,-18,1,8,269,1
12,24,4,4,-18,1,-4,261,1
12,24,5,4,-18,1,7,286,1
12,24,6,4,-18,1,11,236,1
12,24,7,4,-18,1,1,237,1
12,24,8,4,-18,1,-2,286,1
12,24,9,4,-18,1,2,418,1
12,24,10,4,-18,1,14,456,1
12,25,1,5,-11,1,5,535,2
12,25,2,5,-11,2,-16,349,2
12,25,3,5,-11,1,5,270,2
12,25,4,5,-11,1,5,285,2
12,25,5,5,-11,1,5,250,2
12,25,6,5,-11,1,5,244,2
12,25,7,5,-11,1,5,239,2
12,25,8,5,-11,1,5,350,2
12,25,9,5,-11,1,5,306,2
12,25,10,5,-11,1,5,285,2
12,26,1,10,6,1,7,435,1
12,26,2,10,6,2,6,309,1
12,26,3,10,6,1,8,447,1
12,26,4,10,6,1,17,374,1
12,26,5,10,6,1,0,285,1
12,26,6,10,6,1,8,264,1
12,26,7,10,6,1,10,276,1
12,26,8,10,6,1,13,286,1
12,26,9,10,6,1,13,365,1
12,26,10,10,6,1,12,279,1
12,27,1,1,2,2,2,737,4
12,27,2,1,2,1,1,318,4
12,27,3,1,2,2,2,333,4
12,27,4,1,2,2,2,274,4
12,27,5,1,2,2,2,302,4
12,27,6,1,2,2,2,281,4
12,27,7,1,2,2,2,360,4
12,27,8,1,2,2,2,280,4
12,27,9,1,2,2,2,307,4
12,27,10,1,2,2,2,284,4
12,28,1,12,3,2,3,453,2
12,28,2,12,3,1,12,285,2
12,28,3,12,3,1,12,234,2
12,28,4,12,3,1,12,254,2
12,28,5,12,3,1,12,278,2
12,28,6,12,3,1,12,290,2
12,28,7,12,3,1,12,285,2
12,28,8,12,3,1,12,234,2
12,28,9,12,3,1,12,332,2
12,28,10,12,3,1,12,286,2
12,29,1,2,1,1,2,672,4
12,29,2,2,1,2,1,272,4
12,29,3,2,1,1,2,368,4
12,29,4,2,1,1,2,254,4
12,29,5,2,1,1,2,270,4
12,29,6,2,1,1,2,279,4
12,29,7,2,1,1,2,266,4
12,29,8,2,1,1,2,285,4
12,29,9,2,1,1,2,303,4
12,29,10,2,1,1,2,286,4
12,30,1,7,-4,2,-4,526,1
12,30,2,7,-4,1,6,363,1
12,30,3,7,-4,1,3,300,1
12,30,4,7,-4,1,1,269,1
12,30,5,7,-4,1,-3,285,1
12,30,6,7,-4,1,7,256,1
12,30,7,7,-4,1,10,238,1
12,30,8,7,-4,1,4,238,1
12,30,9,7,-4,1,12,295,1
12,30,10,7,-4,1,6,252,1
13,1,1,1,14,2,4,4428,2
13,1,2,1,14,2,-1,1451,2
13,1,3,1,14,2,16,864,2
13,1,4,1,14,1,1,847,2
13,1,5,1,14,1,1,847,2
13,1,6,1,14,2,20,1363,2
13,1,7,1,14,1,1,960,2
13,1,8,1,14,1,1,1327,2
13,1,9,1,14,2,8,780,2
13,1,10,1,14,2,9,837,2
13,2,1,-10,-1,2,-12,2461,2
13,2,2,-10,-1,2,0,1566,2
13,2,3,-10,-1,1,-10,896,2
13,2,4,-10,-1,2,-2,793,2
13,2,5,-10,-1,1,-10,805,2
13,2,6,-10,-1,2,-3,759,2
13,2,7,-10,-1,2,-5,745,2
13,2,8,-10,-1,2,0,668,2
13,2,9,-10,-1,2,10,642,2
13,2,10,-10,-1,2,7,729,2
13,3,1,-5,5,1,-5,1179,4
13,3,2,-5,5,2,5,794,4
13,3,3,-5,5,2,5,1037,4
13,3,4,-5,5,2,5,735,4
13,3,5,-5,5,2,5,667,4
13,3,6,-5,5,2,5,741,4
13,3,7,-5,5,2,5,683,4
13,3,8,-5,5,2,5,669,4
13,3,9,-5,5,2,5,713,4
13,3,10,-5,5,2,5,730,4
13,4,1,1,-5,1,-3,3372,3
13,4,2,1,-5,2,-3,752,3
13,4,3,1,-5,1,16,752,3
13,4,4,1,-5,1,0,874,3
13,4,5,1,-5,2,0,723,3
13,4,6,1,-5,1,-1,714,3
13,4,7,1,-5,1,4,637,3
13,4,8,1,-5,2,-12,804,3
13,4,9,1,-5,1,-7,617,3
13,4,10,1,-5,1,8,956,3
13,5,1,-10,6,2,6,1509,4
13,5,2,-10,6,1,-10,681,4
13,5,3,-10,6,2,6,720,4
13,5,4,-10,6,2,6,1556,4
13,5,5,-10,6,2,6,661,4
13,5,6,-10,6,2,6,674,4
13,5,7,-10,6,2,6,672,4
13,5,8,-10,6,2,6,815,4
13,5,9,-10,6,2,6,429,4
13,5,10,-10,6,2,6,408,4
13,6,1,2,18,1,4,1720,1
13,6,2,2,18,2,18,814,1
13,6,3,2,18,2,18,717,1
13,6,4,2,18,2,18,831,1
13,6,5,2,18,2,18,814,1
13,6,6,2,18,2,18,585,1
13,6,7,2,18,2,18,672,1
13,6,8,2,18,2,18,680,1
13,6,9,2,18,2,18,730,1
13,6,10,2,18,2,18,807,1
13,7,1,-12,-14,1,-9,1361,3
13,7,2,-12,-14,2,-5,732,3
13,7,3,-12,-14,2,-8,660,3
13,7,4,-12,-14,2,-14,654,3
13,7,5,-12,-14,1,-20,742,3
13,7,6,-12,-14,2,-20,683,3
13,7,7,-12,-14,2,-6,611,3
13,7,8,-12,-14,2,-9,671,3
13,7,9,-12,-14,1,-11,599,3
13,7,10,-12,-14,2,-13,584,3
13,8,1,-12,9,1,-9,1031,3
13,8,2,-12,9,2,3,742,3
13,8,3,-12,9,1,-5,620,3
13,8,4,-12,9,2,9,669,3
13,8,5,-12,9,2,3,687,3
13,8,6,-12,9,2,3,643,3
13,8,7,-12,9,2,-1,670,3
13,8,8,-12,9,2,13,726,3
13,8,9,-12,9,2,20,656,3
13,8,10,-12,9,2,3,790,3
13,9,1,-20,4,1,-17,2084,3
13,9,2,-20,4,2,5,699,3
13,9,3,-20,4,2,9,676,3
13,9,4,-20,4,1,-21,885,3
13,9,5,-20,4,2,5,543,3
13,9,6,-20,4,2,7,496,3
13,9,7,-20,4,2,6,440,3
13,9,8,-20,4,2,6,432,3
13,9,9,-20,4,2,3,326,3
13,9,10,-20,4,2,0,410,3
13,10,1,-15,-6,1,-15,1745,2
13,10,2,-15,-6,1,-15,914,2
13,10,3,-15,-6,2,-2,582,2
13,10,4,-15,-6,2,-12,633,2
13,10,5,-15,-6,2,-1,571,2
13,10,6,-15,-6,2,-15,607,2
13,10,7,-15,-6,2,-10,554,2
13,10,8,-15,-6,2,-16,521,2
13,10,9,-15,-6,2,-8,565,2
13,10,10,-15,-6,2,-10,602,2
13,11,1,10,1,1,10,1231,4
13,11,2,10,1,2,1,569,4
13,11,3,10,1,1,10,658,4
13,11,4,10,1,1,10,738,4
13,11,5,10,1,1,10,510,4
13,11,6,10,1,1,10,530,4
13,11,7,10,1,1,10,505,4
13,11,8,10,1,1,10,378,4
13,11,9,10,1,1,10,761,4
13,11,10,10,1,1,10,741,4
13,12,1,3,4,2,4,664,1
13,12,2,3,4,1,0,800,1
13,12,3,3,4,1,2,712,1
13,12,4,3,4,2,4,505,1
13,12,5,3,4,1,0,1083,1
13,12,6,3,4,1,13,648,1
13,12,7,3,4,1,4,646,1
13,12,8,3,4,2,4,653,1
13,12,9,3,4,1,-7,517,1
13,12,10,3,4,2,4,404,1
13,13,1,0,-9,2,-7,1125,3
13,13,2,0,-9,1,-2,605,3
13,13,3,0,-9,1,0,506,3
13,13,4,0,-9,2,-6,543,3
13,13,5,0,-9,1,0,595,3
13,13,6,0,-9,1,0,599,3
13,13,7,0,-9,1,6,595,3
13,13,8,0,-9,1,18,747,3
13,13,9,0,-9,1,0,710,3
13,13,10,0,-9,1,2,1136,3
13,14,1,16,-4,2,-4,1150,3
13,14,2,16,-4,2,-15,562,3
13,14,3,16,-4,1,14,516,3
13,14,4,16,-4,1,16,495,3
13,14,5,16,-4,1,13,624,3
13,14,6,16,-4,1,12,616,3
13,14,7,16,-4,1,7,644,3
13,14,8,16,-4,1,19,795,3
13,14,9,16,-4,1,14,667,3
13,14,10,16,-4,1,29,790,3
13,15,1,-6,0,2,0,1200,1
13,15,2,-6,0,1,-19,512,1
13,15,3,-6,0,2,0,624,1
13,15,4,-6,0,2,0,402,1
13,15,5,-6,0,2,0,2218,1
13,15,6,-6,0,2,0,395,1
13,15,7,-6,0,2,0,426,1
13,15,8,-6,0,2,0,627,1
13,15,9,-6,0,2,0,759,1
13,15,10,-6,0,2,0,709,1
13,16,1,-1,0,1,-1,1021,4
13,16,2,-1,0,2,0,594,4
13,16,3,-1,0,2,0,491,4
13,16,4,-1,0,2,0,426,4
13,16,5,-1,0,2,0,485,4
13,16,6,-1,0,1,-1,617,4
13,16,7,-1,0,2,0,556,4
13,16,8,-1,0,2,0,493,4
13,16,9,-1,0,2,0,688,4
13,16,10,-1,0,2,0,432,4
13,17,1,4,9,1,13,991,1
13,17,2,4,9,2,9,468,1
13,17,3,4,9,1,7,2202,1
13,17,4,4,9,2,9,864,1
13,17,5,4,9,2,9,626,1
13,17,6,4,9,1,6,666,1
13,17,7,4,9,2,9,577,1
13,17,8,4,9,1,-2,470,1
13,17,9,4,9,2,9,617,1
13,17,10,4,9,2,9,445,1
13,18,1,-7,-19,1,-3,17473,1
13,18,2,-7,-19,2,-19,589,1
13,18,3,-7,-19,1,-22,493,1
13,18,4,-7,-19,2,-19,700,1
13,18,5,-7,-19,2,-19,856,1
13,18,6,-7,-19,1,-2,555,1
13,18,7,-7,-19,1,-6,575,1
13,18,8,-7,-19,1,1,1403,1
13,18,9,-7,-19,1,2,768,1
13,18,10,-7,-19,1,-19,598,1
13,19,1,-4,7,2,7,1023,1
13,19,2,-4,7,1,-2,462,1
13,19,3,-4,7,2,7,484,1
13,19,4,-4,7,2,7,6535,1
13,19,5,-4,7,1,7,465,1
13,19,6,-4,7,2,7,778,1
13,19,7,-4,7,2,7,524,1
13,19,8,-4,7,1,-6,567,1
13,19,9,-4,7,2,7,494,1
13,19,10,-4,7,2,7,784,1
13,20,1,2,2,1,2,1168,2
13,20,2,2,2,2,-2,550,2
13,20,3,2,2,1,2,614,2
13,20,4,2,2,1,2,650,2
13,20,5,2,2,2,-1,706,2
13,20,6,2,2,2,1,742,2
13,20,7,2,2,2,3,721,2
13,20,8,2,2,2,-5,813,2
13,20,9,2,2,1,2,531,2
13,20,10,2,2,1,2,853,2
13,21,1,16,-7,1,16,2.4852e+05,4
13,21,2,16,-7,2,-7,731,4
13,21,3,16,-7,1,16,553,4
13,21,4,16,-7,1,16,420,4
13,21,5,16,-7,1,16,609,4
13,21,6,16,-7,2,-7,967,4
13,21,7,16,-7,1,16,356,4
13,21,8,16,-7,1,16,488,4
13,21,9,16,-7,1,16,406,4
13,21,10,16,-7,1,16,325,4
13,22,1,-3,2,1,-6,1559,1
13,22,2,-3,2,2,2,340,1
13,22,3,-3,2,2,2,476,1
13,22,4,-3,2,1,-1,496,1
13,22,5,-3,2,1,-6,483,1
13,22,6,-3,2,1,-5,541,1
13,22,7,-3,2,1,-4,492,1
13,22,8,-3,2,2,2,452,1
13,22,9,-3,2,2,2,975,1
13,22,10,-3,2,2,2,724,1
13,23,1,-7,-18,1,-2,1524,3
13,23,2,-7,-18,2,-23,620,3
13,23,3,-7,-18,1,-6,705,3
13,23,4,-7,-18,1,0,880,3
13,23,5,-7,-18,2,-12,518,3
13,23,6,-7,-18,1,-15,440,3
13,23,7,-7,-18,1,1,354,3
13,23,8,-7,-18,1,3,1614,3
13,23,9,-7,-18,1,-14,855,3
13,23,10,-7,-18,1,-3,810,3
13,24,1,13,-10,2,-10,1444,1
13,24,2,13,-10,1,14,791,1
13,24,3,13,-10,1,10,580,1
13,24,4,13,-10,1,4,654,1
13,24,5,13,-10,1,18,643,1
13,24,6,13,-10,1,6,679,1
13,24,7,13,-10,1,10,742,1
13,24,8,13,-10,1,15,739,1
13,24,9,13,-10,1,12,987,1
13,24,10,13,-10,1,16,734,1
13,25,1,4,-18,1,15,1156,1
13,25,2,4,-18,2,-18,783,1
13,25,3,4,-18,1,8,755,1
13,25,4,4,-18,1,6,602,1
13,25,5,4,-18,1,9,609,1
13,25,6,4,-18,1,-8,610,1
13,25,7,4,-18,1,8,644,1
13,25,8,4,-18,1,3,752,1
13,25,9,4,-18,1,-4,730,1
13,25,10,4,-18,1,9,733,1
13,26,1,9,14,2,14,2120,1
13,26,2,9,14,1,7,643,1
13,26,3,9,14,2,14,548,1
13,26,4,9,14,2,14,604,1
13,26,5,9,14,2,14,471,1
13,26,6,9,14,2,14,509,1
13,26,7,9,14,2,14,373,1
13,26,8,9,14,2,14,437,1
13,26,9,9,14,2,14,463,1
13,26,10,9,14,2,14,551,1
13,27,1,-12,-10,1,-17,1238,3
13,27,2,-12,-10,2,-10,417,3
13,27,3,-12,-10,1,-18,704,3
13,27,4,-12,-10,2,-6,562,3
13,27,5,-12,-10,2,-9,594,3
13,27,6,-12,-10,2,-7,460,3
13,27,7,-12,-10,1,-9,480,3
13,27,8,-12,-10,2,-16,445,3
13,27,9,-12,-10,1,-6,453,3
13,27,10,-12,-10,2,-13,879,3
13,28,1,11,-7,1,11,9287,2
13,28,2,11,-7,2,-11,551,2
13,28,3,11,-7,1,11,559,2
13,28,4,11,-7,1,11,449,2
13,28,5,11,-7,1,11,1332,2
13,28,6,11,-7,1,11,642,2
13,28,7,11,-7,1,11,471,2
13,28,8,11,-7,1,11,451,2
13,28,9,11,-7,1,11,661,2
13,28,10,11,-7,1,11,644,2
13,29,1,-3,10,1,-3,897,4
13,29,2,-3,10,2,10,612,4
13,29,3,-3,10,2,10,496,4
13,29,4,-3,10,2,10,373,4
13,29,5,-3,10,2,10,1891,4
13,29,6,-3,10,2,10,686,4
13,29,7,-3,10,2,10,505,4
13,29,8,-3,10,2,10,402,4
13,29,9,-3,10,2,10,696,4
13,29,10,-3,10,2,10,759,4
13,30,1,14,6,1,14,1436,4
13,30,2,14,6,1,14,725,4
13,30,3,14,6,2,6,559,4
13,30,4,14,6,1,14,657,4
13,30,5,14,6,1,14,688,4
13,30,6,14,6,1,14,613,4
13,30,7,14,6,1,14,715,4
13,30,8,14,6,1,14,650,4
13,30,9,14,6,1,14,691,4
13,30,10,14,6,1,14,750,4
14,1,1,-5,4,1,-5,2283,2
14,1,2,-5,4,2,-6,1511,2
14,1,3,-5,4,2,6,4520,2
14,1,4,-5,4,1,-5,5828,2
14,1,5,-5,4,2,9,527,2
14,1,6,-5,4,2,-2,497,2
14,1,7,-5,4,2,11,736,2
14,1,8,-5,4,2,-9,567,2
14,1,9,-5,4,2,-3,637,2
14,1,10,-5,4,1,-5,637,2
14,2,1,8,-10,2,3,2566,3
14,2,2,8,-10,2,-12,1374,3
14,2,3,8,-10,2,-8,2503,3
14,2,4,8,-10,2,-19,546,3
14,2,5,8,-10,1,6,588,3
14,2,6,8,-10,1,3,487,3
14,2,7,8,-10,1,8,546,3
14,2,8,8,-10,1,8,577,3
14,2,9,8,-10,1,9,557,3
14,2,10,8,-10,1,7,516,3
14,3,1,7,-2,2,-2,1408,4
14,3,2,7,-2,1,7,686,4
14,3,3,7,-2,1,7,537,4
14,3,4,7,-2,1,7,582,4
14,3,5,7,-2,1,7,607,4
14,3,6,7,-2,1,7,557,4
14,3,7,7,-2,1,7,557,4
14,3,8,7,-2,1,7,567,4
14,3,9,7,-2,1,7,587,4
14,3,10,7,-2,1,7,517,4
14,4,1,4,-2,1,0,1358,1
14,4,2,4,-2,2,-2,766,1
14,4,3,4,-2,1,-3,527,1
14,4,4,4,-2,2,-2,464,1
14,4,5,4,-2,2,-2,656,1
14,4,6,4,-2,2,-2,935,1
14,4,7,4,-2,1,3,466,1
14,4,8,4,-2,1,7,637,1
14,4,9,4,-2,1,15,497,1
14,4,10,4,-2,1,4,537,1
14,5,1,-26,-18,2,-29,1518,3
14,5,2,-26,-18,1,-23,767,3
14,5,3,-26,-18,1,-26,498,3
14,5,4,-26,-18,2,-11,569,3
14,5,5,-26,-18,1,-30,737,3
14,5,6,-26,-18,2,-14,716,3
14,5,7,-26,-18,2,-33,498,3
14,5,8,-26,-18,1,-24,487,3
14,5,9,-26,-18,2,-16,478,3
14,5,10,-26,-18,1,-27,532,3
14,6,1,3,-7,2,-17,731,2
14,6,2,3,-7,1,3,558,2
14,6,3,3,-7,1,3,403,2
14,6,4,3,-7,1,3,509,2
14,6,5,3,-7,1,3,428,2
14,6,6,3,-7,1,3,438,2
14,6,7,3,-7,1,3,447,2
14,6,8,3,-7,1,3,476,2
14,6,9,3,-7,1,3,547,2
14,6,10,3,-7,1,3,618,2
14,7,1,-10,2,2,2,1028,1
14,7,2,-10,2,2,2,438,1
14,7,3,-10,2,2,2,447,1
14,7,4,-10,2,2,2,515,1
14,7,5,-10,2,1,0,558,1
14,7,6,-10,2,2,2,498,1
14,7,7,-10,2,2,2,471,1
14,7,8,-10,2,2,2,488,1
14,7,9,-10,2,1,-17,488,1
14,7,10,-10,2,2,2,528,1
14,8,1,-6,7,1,-3,911,1
14,8,2,-6,7,2,7,378,1
14,8,3,-6,7,2,7,421,1
14,8,4,-6,7,2,7,419,1
14,8,5,-6,7,2,7,418,1
14,8,6,-6,7,2,7,458,1
14,8,7,-6,7,2,7,528,1
14,8,8,-6,7,2,7,518,1
14,8,9,-6,7,2,7,478,1
14,8,10,-6,7,2,7,488,1
14,9,1,-5,-11,1,-5,1009,2
14,9,2,-5,-11,2,-4,379,2
14,9,3,-5,-11,1,-5,419,2
14,9,4,-5,-11,2,-12,378,2
14,9,5,-5,-11,1,-5,517,2
14,9,6,-5,-11,2,-9,465,2
14,9,7,-5,-11,1,-5,538,2
14,9,8,-5,-11,1,-5,479,2
14,9,9,-5,-11,1,-5,457,2
14,9,10,-5,-11,1,-5,448,2
14,10,1,6,-6,2,-6,1425,1
14,10,2,6,-6,1,3,468,1
14,10,3,6,-6,1,6,627,1
14,10,4,6,-6,1,9,458,1
14,10,5,6,-6,1,0,439,1
14,10,6,6,-6,1,5,597,1
14,10,7,6,-6,1,9,449,1
14,10,8,6,-6,1,18,447,1
14,10,9,6,-6,1,7,497,1
14,10,10,6,-6,1,4,535,1
14,11,1,-3,1,1,-3,2196,2
14,11,2,-3,1,2,-7,518,2
14,11,3,-3,1,2,14,1306,2
14,11,4,-3,1,2,0,456,2
14,11,5,-3,1,2,9,399,2
14,11,6,-3,1,2,0,426,2
14,11,7,-3,1,2,2,476,2
14,11,8,-3,1,2,-2,479,2
14,11,9,-3,1,2,-5,437,2
14,11,10,-3,1,2,10,487,2
14,12,1,4,-9,1,4,938,2
14,12,2,4,-9,2,-16,580,2
14,12,3,4,-9,2,-10,1326,2
14,12,4,4,-9,2,-9,705,2
14,12,5,4,-9,1,4,429,2
14,12,6,4,-9,1,4,445,2
14,12,7,4,-9,1,4,646,2
14,12,8,4,-9,1,4,438,2
14,12,9,4,-9,1,4,406,2
14,12,10,4,-9,1,4,498,2
14,13,1,-6,-12,1,-6,1058,2
14,13,2,-6,-12,2,-24,484,2
14,13,3,-6,-12,2,-18,588,2
14,13,4,-6,-12,2,-7,469,2
14,13,5,-6,-12,2,-16,427,2
14,13,6,-6,-12,1,-6,538,2
14,13,7,-6,-12,1,-6,495,2
14,13,8,-6,-12,1,-6,420,2
14,13,9,-6,-12,1,-6,395,2
14,13,10,-6,-12,1,-6,456,2
14,14,1,11,6,1,11,768,2
14,14,2,11,6,1,11,508,2
14,14,3,11,6,1,11,478,2
14,14,4,11,6,1,11,438,2
14,14,5,11,6,1,11,448,2
14,14,6,11,6,1,11,498,2
14,14,7,11,6,1,11,508,2
14,14,8,11,6,1,11,496,2
14,14,9,11,6,1,11,479,2
14,14,10,11,6,1,11,558,2
14,15,1,0,-3,2,-5,1696,3
14,15,2,0,-3,1,5,498,3
14,15,3,0,-3,1,-4,398,3
14,15,4,0,-3,1,7,378,3
14,15,5,0,-3,1,-7,368,3
14,15,6,0,-3,1,1,387,3
14,15,7,0,-3,1,5,417,3
14,15,8,0,-3,1,2,458,3
14,15,9,0,-3,1,-1,397,3
14,15,10,0,-3,1,3,427,3
14,16,1,4,-4,2,-4,1517,1
14,16,2,4,-4,1,7,447,1
14,16,3,4,-4,1,0,410,1
14,16,4,4,-4,1,7,458,1
14,16,5,4,-4,1,-7,479,1
14,16,6,4,-4,1,13,468,1
14,16,7,4,-4,1,3,570,1
14,16,8,4,-4,1,-4,442,1
14,16,9,4,-4,1,-1,686,1
14,16,10,4,-4,1,5,547,1
14,17,1,5,-7,2,-7,1377,1
14,17,2,5,-7,1,-6,954,1
14,17,3,5,-7,1,7,557,1
14,17,4,5,-7,1,6,477,1
14,17,5,5,-7,1,3,428,1
14,17,6,5,-7,1,2,428,1
14,17,7,5,-7,1,10,487,1
14,17,8,5,-7,1,6,445,1
14,17,9,5,-7,1,11,517,1
14,17,10,5,-7,1,11,615,1
14,18,1,-11,3,1,-12,991,3
14,18,2,-11,3,2,0,556,3
14,18,3,-11,3,2,4,698,3
14,18,4,-11,3,2,14,548,3
14,18,5,-11,3,2,-5,437,3
14,18,6,-11,3,2,6,647,3
14,18,7,-11,3,2,7,548,3
14,18,8,-11,3,2,12,667,3
14,18,9,-11,3,2,12,644,3
14,18,10,-11,3,2,-4,668,3
14,19,1,-1,11,1,6,739,3
14,19,2,-1,11,1,1,458,3
14,19,3,-1,11,1,3,425,3
14,19,4,-1,11,1,-3,468,3
14,19,5,-1,11,1,7,497,3
14,19,6,-1,11,1,0,1005,3
14,19,7,-1,11,1,0,450,3
14,19,8,-1,11,1,-9,447,3
14,19,9,-1,11,1,-1,528,3
14,19,10,-1,11,1,-7,518,3
14,20,1,-8,-4,2,-11,1158,3
14,20,2,-8,-4,1,-7,496,3
14,20,3,-8,-4,1,-13,467,3
14,20,4,-8,-4,2,-5,429,3
14,20,5,-8,-4,2,0,419,3
14,20,6,-8,-4,2,-11,448,3
14,20,7,-8,-4,1,-2,526,3
14,20,8,-8,-4,1,-12,667,3
14,20,9,-8,-4,1,-15,453,3
14,20,10,-8,-4,2,-6,508,3
14,21,1,-6,-1,1,-6,709,2
14,21,2,-6,-1,2,-3,1106,2
14,21,3,-6,-1,1,-6,627,2
14,21,4,-6,-1,2,-1,447,2
14,21,5,-6,-1,2,1,446,2
14,21,6,-6,-1,2,-3,389,2
14,21,7,-6,-1,2,-5,368,2
14,21,8,-6,-1,2,13,448,2
14,21,9,-6,-1,2,8,488,2
14,21,10,-6,-1,2,0,548,2
14,22,1,8,4,1,-3,738,1
14,22,2,8,4,2,4,429,1
14,22,3,8,4,2,4,477,1
14,22,4,8,4,2,4,438,1
14,22,5,8,4,2,4,507,1
14,22,6,8,4,1,19,439,1
14,22,7,8,4,1,11,864,1
14,22,8,8,4,1,9,406,1
14,22,9,8,4,1,7,414,1
14,22,10,8,4,1,15,403,1
14,23,1,-5,-3,2,-3,986,1
14,23,2,-5,-3,1,-5,458,1
14,23,3,-5,-3,1,-9,366,1
14,23,4,-5,-3,1,-9,438,1
14,23,5,-5,-3,1,-2,367,1
14,23,6,-5,-3,1,-8,434,1
14,23,7,-5,-3,2,-3,438,1
14,23,8,-5,-3,2,-3,428,1
14,23,9,-5,-3,1,0,420,1
14,23,10,-5,-3,1,-1,391,1
14,24,1,1,9,2,11,658,3
14,24,2,1,9,1,-3,462,3
14,24,3,1,9,2,-2,387,3
14,24,4,1,9,1,12,417,3
14,24,5,1,9,1,13,398,3
14,24,6,1,9,1,20,427,3
14,24,7,1,9,1,7,428,3
14,24,8,1,9,1,1,610,3
14,24,9,1,9,1,-5,666,3
14,24,10,1,9,1,-5,456,3
14,25,1,-13,-5,1,-13,927,2
14,25,2,-13,-5,2,-2,406,2
14,25,3,-13,-5,2,0,457,2
14,25,4,-13,-5,2,2,498,2
14,25,5,-13,-5,2,-1,526,2
14,25,6,-13,-5,2,2,686,2
14,25,7,-13,-5,2,-11,628,2
14,25,8,-13,-5,2,2,531,2
14,25,9,-13,-5,2,-3,405,2
14,25,10,-13,-5,2,5,418,2
14,26,1,1,-6,1,0,890,3
14,26,2,1,-6,2,-7,490,3
14,26,3,1,-6,1,8,438,3
14,26,4,1,-6,1,13,367,3
14,26,5,1,-6,1,-1,453,3
14,26,6,1,-6,1,6,405,3
14,26,7,1,-6,1,-1,448,3
14,26,8,1,-6,1,4,378,3
14,26,9,1,-6,1,-1,388,3
14,26,10,1,-6,1,4,457,3
14,27,1,-12,8,1,-12,1368,2
14,27,2,-12,8,2,12,449,2
14,27,3,-12,8,2,16,448,2
14,27,4,-12,8,2,13,386,2
14,27,5,-12,8,2,9,358,2
14,27,6,-12,8,2,4,359,2
14,27,7,-12,8,2,9,438,2
14,27,8,-12,8,2,15,430,2
14,27,9,-12,8,2,17,1507,2
14,27,10,-12,8,2,10,264,2
14,28,1,5,-4,1,10,1108,3
14,28,2,5,-4,1,4,287,3
14,28,3,5,-4,1,7,471,3
14,28,4,5,-4,1,12,235,3
14,28,5,5,-4,1,0,250,3
14,28,6,5,-4,1,2,220,3
14,28,7,5,-4,1,6,243,3
14,28,8,5,-4,1,3,211,3
14,28,9,5,-4,1,7,219,3
14,28,10,5,-4,1,0,237,3
14,29,1,6,7,2,7,673,4
14,29,2,6,7,2,7,455,4
14,29,3,6,7,2,7,260,4
14,29,4,6,7,1,6,312,4
14,29,5,6,7,2,7,290,4
14,29,6,6,7,2,7,218,4
14,29,7,6,7,2,7,218,4
14,29,8,6,7,2,7,624,4
14,29,9,6,7,2,7,305,4
14,29,10,6,7,2,7,242,4
14,30,1,0,-4,1,0,862,2
14,30,2,0,-4,2,-11,311,2
14,30,3,0,-4,2,4,215,2
14,30,4,0,-4,2,-4,206,2
14,30,5,0,-4,2,-5,218,2
14,30,6,0,-4,2,1,226,2
14,30,7,0,-4,2,2,210,2
14,30,8,0,-4,2,-8,218,2
14,30,9,0,-4,2,1,234,2
14,30,10,0,-4,2,-5,232,2
15,1,1,-1,10,1,-1,8100,4
15,1,2,-1,10,2,10,888,4
15,1,3,-1,10,2,10,991,4
15,1,4,-1,10,2,10,1584,4
15,1,5,-1,10,2,10,499,4
15,1,6,-1,10,2,10,443,4
15,1,7,-1,10,2,10,388,4
15,1,8,-1,10,2,10,470,4
15,1,9,-1,10,2,10,437,4
15,1,10,-1,10,2,10,488,4
15,2,1,10,10,1,6,1150,3
15,2,2,10,10,2,4,1829,3
15,2,3,10,10,1,15,690,3
15,2,4,10,10,1,9,474,3
15,2,5,10,10,1,13,507,3
15,2,6,10,10,1,11,628,3
15,2,7,10,10,2,13,538,3
15,2,8,10,10,2,0,628,3
15,2,9,10,10,1,12,351,3
15,2,10,10,10,1,17,379,3
15,3,1,11,11,1,10,1218,3
15,3,2,11,11,1,-3,600,3
15,3,3,11,11,2,23,564,3
15,3,4,11,11,2,9,522,3
15,3,5,11,11,2,13,399,3
15,3,6,11,11,1,20,502,3
15,3,7,11,11,1,26,677,3
15,3,8,11,11,1,6,393,3
15,3,9,11,11,1,29,621,3
15,3,10,11,11,1,12,323,3
15,4,1,10,0,1,10,794,4
15,4,2,10,0,1,10,1073,4
15,4,3,10,0,2,0,395,4
15,4,4,10,0,1,10,340,4
15,4,5,10,0,1,10,321,4
15,4,6,10,0,1,10,312,4
15,4,7,10,0,1,10,302,4
15,4,8,10,0,1,10,315,4
15,4,9,10,0,1,10,319,4
15,4,10,10,0,1,10,322,4
15,5,1,-13,-4,1,-9,675,1
15,5,2,-13,-4,1,-9,562,1
15,5,3,-13,-4,1,-13,536,1
15,5,4,-13,-4,2,-4,593,1
15,5,5,-13,-4,1,-12,627,1
15,5,6,-13,-4,1,-16,475,1
15,5,7,-13,-4,1,-24,1089,1
15,5,8,-13,-4,2,-4,382,1
15,5,9,-13,-4,2,-4,315,1
15,5,10,-13,-4,2,-4,699,1
15,6,1,-8,11,2,6,859,3
15,6,2,-8,11,2,21,544,3
15,6,3,-8,11,1,-13,556,3
15,6,4,-8,11,2,13,1687,3
15,6,5,-8,11,2,11,361,3
15,6,6,-8,11,2,22,316,3
15,6,7,-8,11,2,10,306,3
15,6,8,-8,11,2,17,300,3
15,6,9,-8,11,2,18,302,3
15,6,10,-8,11,2,9,292,3
15,7,1,3,8,2,2,884,2
15,7,2,3,8,2,-6,414,2
15,7,3,3,8,1,3,396,2
15,7,4,3,8,1,3,414,2
15,7,5,3,8,2,6,415,2
15,7,6,3,8,2,3,440,2
15,7,7,3,8,2,14,422,2
15,7,8,3,8,2,14,403,2
15,7,9,3,8,2,20,303,2
15,7,10,3,8,2,17,437,2
15,8,1,-11,1,2,1,826,1
15,8,2,-11,1,1,-13,652,1
15,8,3,-11,1,1,-6,570,1
15,8,4,-11,1,2,1,549,1
15,8,5,-11,1,2,1,269,1
15,8,6,-11,1,2,1,233,1
15,8,7,-11,1,2,1,230,1
15,8,8,-11,1,2,1,214,1
15,8,9,-11,1,2,1,220,1
15,8,10,-11,1,2,1,447,1
15,9,1,-14,5,2,5,47753,1
15,9,2,-14,5,1,-26,983,1
15,9,3,-14,5,2,5,563,1
15,9,4,-14,5,2,5,308,1
15,9,5,-14,5,2,5,284,1
15,9,6,-14,5,2,5,290,1
15,9,7,-14,5,2,5,285,1
15,9,8,-14,5,2,5,275,1
15,9,9,-14,5,2,5,296,1
15,9,10,-14,5,2,5,286,1
15,10,1,15,-13,2,-13,1319,4
15,10,2,15,-13,1,15,675,4
